sim_time_ns,gyro_x,gyro_y,gyro_z,accel_x,accel_y,accel_z
283895649000,0.0024055654648691416,0.000287952134385705,-0.003964828327298164,1.3213547468185425,-1.117543339729309,-9.63935375213623
283902664000,-0.0010584247065708041,0.0002645659842528403,0.0016863517230376601,1.3999220132827759,-1.2071974277496338,-9.660003662109375
283909508000,-0.0008707790402695537,-0.0006302637630142272,-1.1596515832934529e-05,1.3434780836105347,-1.1535807847976685,-9.632600784301758
283923363000,-9.285114356316626e-05,-0.0003108604869339615,-8.105648157652467e-05,1.3673797845840454,-1.1741042137145996,-9.635851860046387
283930376000,6.465648766607046e-05,0.0009426152100786567,0.0022718769032508135,1.3962916135787964,-1.1980596780776978,-9.658658981323242
283937283000,0.0024169902317225933,0.000296020763926208,-0.003974046558141708,1.3213447332382202,-1.117409586906433,-9.639373779296875
283944195000,-0.0010378307197242975,0.00029181584250181913,0.0016782503807917237,1.40018630027771,-1.2073110342025757,-9.66036319732666
283958087000,-0.0005332036525942385,-0.00055035634431988,-7.840788020985201e-05,1.3652920722961426,-1.172520637512207,-9.635672569274902
283965113000,-0.00010785410995595157,-0.00031343402224592865,-8.78031860338524e-05,1.3673598766326904,-1.1740270853042603,-9.636016845703125
283972017000,0.00018649129197001457,-0.0001470033312216401,-0.00010760202712845057,1.3666174411773682,-1.1728119850158691,-9.638755798339844
283978901000,0.00021677807671949267,0.0009395554079674184,0.002254476770758629,1.3951715230941772,-1.1964739561080933,-9.661117553710938
283992797000,-0.000986365950666368,0.00023290899116545916,0.0016913292929530144,1.3981698751449585,-1.204796552658081,-9.65930461883545
283999844000,-0.0008218450238928199,-0.000519018096383661,6.093196861911565e-05,1.3448727130889893,-1.1551588773727417,-9.635316848754883
284006710000,-0.0006297890795394778,-0.0006510565872304142,-6.757005758117884e-05,1.3631829023361206,-1.1696817874908447,-9.636390686035156
284013767000,-0.0002139342250302434,-0.000407639192417264,-7.983828254509717e-05,1.3673533201217651,-1.1736570596694946,-9.635546684265137
284020639000,-3.0368100851774216e-06,0.0008192772511392832,0.002252364531159401,1.3960678577423096,-1.1976746320724487,-9.6565580368042
284034621000,-0.0010542655363678932,0.00016950391000136733,0.0017058869125321507,1.3980451822280884,-1.2050563097000122,-9.657662391662598
284041415000,-0.0008090229239314795,-0.0005351700820028782,9.007022890727967e-05,1.345453143119812,-1.156040906906128,-9.634221076965332
284048461000,-0.0005724540096707642,-0.0007023573270998895,-0.00016459060134366155,1.3620492219924927,-1.1680752038955688,-9.63318920135498
284055318000,-7.728408672846854e-05,-0.00027946356567554176,-0.00011102329881396145,1.3694067001342773,-1.175734519958496,-9.636008262634277
284069276000,0.00020978553220629692,0.0011208751238882542,0.0022029243409633636,1.3977396488189697,-1.1988441944122314,-9.662954330444336
284076154000,0.0024739918299019337,0.00045441545080393553,-0.004037484526634216,1.3212522268295288,-1.1166722774505615,-9.640917778015137
284083142000,-0.0010498204501345754,0.0004160194657742977,0.0016410208772867918,1.400139331817627,-1.2069733142852783,-9.66181755065918
284090048000,-0.0009462006855756044,-0.0005573272937908769,-5.735864397138357e-05,1.3427479267120361,-1.1527440547943115,-9.633466720581055
284097064000,-0.0006616037571802735,-0.0005530240014195442,-0.00010328201460652053,1.3648779392242432,-1.1722126007080078,-9.637035369873047
284110865000,-0.00028427355573512614,-0.00039283832302317023,0.0001591115287737921,1.3376215696334839,-1.148787260055542,-9.628327369689941
284117909000,-2.639181911945343e-05,-0.0004750173247884959,-3.0917261028662324e-05,1.3630903959274292,-1.1698956489562988,-9.635930061340332
284124775000,0.0002578424755483866,-0.00031887090881355107,-6.418724660761654e-05,1.3664720058441162,-1.1726434230804443,-9.638949394226074
284131789000,0.000389069871744141,-0.00022454949794337153,-0.00010377285070717335,1.3658349514007568,-1.1712478399276733,-9.641762733459473
284145638000,0.0025595794431865215,0.0003092613769695163,-0.004023502115160227,1.321688175201416,-1.1165719032287598,-9.641046524047852
284152616000,-0.0009976070141419768,0.00034421891905367374,0.0016494597075507045,1.40053129196167,-1.2065980434417725,-9.6618013381958
284159533000,-0.0009374484652653337,-0.0005847093998454511,-6.218634371180087e-05,1.3428778648376465,-1.1522438526153564,-9.633249282836914
284166483000,-0.0006694160983897746,-0.0005303772632032633,-0.00010718268458731472,1.3651785850524902,-1.1721047163009644,-9.636946678161621
284180398000,-6.875733379274607e-05,0.000906340021174401,0.0022287508472800255,1.3958073854446411,-1.197725772857666,-9.656682968139648
284187296000,0.0024811625480651855,0.00034188851714134216,-0.003961712587624788,1.3221794366836548,-1.1203055381774902,-9.639548301696777
284194204000,-0.0010335122933611274,0.0002885370049625635,0.00168026948813349,1.3995198011398315,-1.2065742015838623,-9.660033226013184
284201185000,-0.0008807433187030256,-0.0006138185854069889,-4.130544402869418e-05,1.3431442975997925,-1.1529840230941772,-9.632744789123535
284208104000,-0.0005431055324152112,-0.0005230006063356996,-9.158342436421663e-05,1.3654446601867676,-1.1726293563842773,-9.635407447814941
284222059000,3.446976188570261e-05,0.0009807866299524903,0.0022511405404657125,1.3963249921798706,-1.1981266736984253,-9.658682823181152
284228929000,0.00236776121892035,0.0003092177212238312,-0.003992159850895405,1.3209965229034424,-1.1172137260437012,-9.639331817626953
284235928000,-0.001068842364475131,0.0002168603241443634,0.001656797481700778,1.399424433708191,-1.2067186832427979,-9.65925121307373
284242839000,-0.0008287364616990089,-0.0005023478297516704,7.273055234691128e-05,1.3454787731170654,-1.1563414335250854,-9.634765625
284256735000,-0.00012916928972117603,-0.000351672584656626,-9.033712558448315e-05,1.3670613765716553,-1.1735398769378662,-9.635418891906738
284263712000,0.00013824881170876324,-0.00026893525500781834,-0.0002257112500956282,1.3650356531143188,-1.170660138130188,-9.636777877807617
284270706000,0.0002202889882028103,0.0010802047327160835,0.0022114019375294447,1.3976935148239136,-1.198966383934021,-9.662460327148438
284277609000,0.002539132023230195,0.0005355890607461333,-0.003922933246940374,1.3229560852050781,-1.119000792503357,-9.64246940612793
284291442000,-0.0009062730241566896,-0.0006251186714507639,-5.862435500603169e-05,1.34250807762146,-1.1526298522949219,-9.633492469787598
284298470000,-0.000600192288402468,-0.0005563606973737478,-0.00010109298455063254,1.365526795387268,-1.172310471534729,-9.637504577636719
284305375000,-0.00021350872702896595,-0.0003505823842715472,-0.0001023699514917098,1.3670446872711182,-1.173527479171753,-9.636280059814453
284312270000,-4.4522632379084826e-05,0.0009136280277743936,0.0022556001786142588,1.3963226079940796,-1.1981786489486694,-9.658074378967285
284319297000,0.0023163603618741035,0.0002609000075608492,-0.003982608672231436,1.3212310075759888,-1.1175199747085571,-9.639178276062012
284333185000,-0.0008191656670533121,-0.0004984182305634022,7.44374847272411e-05,1.3459120988845825,-1.1567543745040894,-9.633980751037598
284340079000,-0.0005373969324864447,-0.0005791198927909136,-6.686031701974571e-05,1.3634414672851562,-1.170301914215088,-9.634413719177246
284347084000,-0.00010821811156347394,-0.0003424029564484954,-9.170130942948163e-05,1.3671700954437256,-1.173639178276062,-9.635226249694824
284354003000,9.064114419743419e-05,0.0008611459634266794,0.002253023674711585,1.395965576171875,-1.197719693183899,-9.65726375579834
284360876000,0.0025001936592161655,0.00040630169678479433,-0.0038809736724942923,1.323595404624939,-1.1203346252441406,-9.641478538513184
284374796000,-0.0007655699737370014,-0.0005324723897501826,8.430622983723879e-05,1.3451268672943115,-1.1556669473648071,-9.634629249572754
284381769000,-0.0005250580725260079,-0.0006209446000866592,-6.072604446671903e-05,1.3635281324386597,-1.1699731349945068,-9.63595962524414
284388677000,-0.00013657071394845843,-0.0003972846898250282,-8.3732302300632e-05,1.3671410083770752,-1.173321008682251,-9.635790824890137
284395623000,0.00012595833686646074,-0.0003022525052074343,-0.00021283402747940272,1.365275502204895,-1.1706855297088623,-9.636740684509277
284402604000,0.00020960508845746517,0.0010630064643919468,0.002213823376223445,1.3978374004364014,-1.1988648176193237,-9.662274360656738
284416556000,-0.0009132713312283158,0.0002811076701618731,0.0016591432504355907,1.3991446495056152,-1.2054921388626099,-9.660516738891602
284423417000,-0.0007986233686096966,-0.00048074708320200443,3.323539567645639e-05,1.3448400497436523,-1.1547491550445557,-9.6358003616333
284430369000,-0.0007007700623944402,-0.000744893797673285,-0.000202922077733092,1.3613450527191162,-1.1670317649841309,-9.635683059692383
284437292000,-7.217185338959098e-05,-0.00034107346436940134,-8.084108412731439e-05,1.3697535991668701,-1.177660346031189,-9.636080741882324
284451198000,-7.265910971909761e-05,-0.0003647628182079643,3.987290256191045e-06,1.3353588581085205,-1.14461088180542,-9.627972602844238
284458169000,4.168759915046394e-05,-0.00036920508136972785,-0.00010548895807005465,1.3644245862960815,-1.1701860427856445,-9.64091682434082
284465123000,0.0001117867068387568,-0.00039603750337846577,-0.0002351169678149745,1.3641949892044067,-1.1690338850021362,-9.640345573425293
284472028000,0.0001261499710381031,0.0009604205843061209,0.0022083790972828865,1.3978347778320312,-1.1984727382659912,-9.663727760314941
284485931000,-0.0011373230954632163,0.00034214009065181017,0.0016398883890360594,1.4002410173416138,-1.2068908214569092,-9.660940170288086
284492852000,-0.001058417372405529,-0.0006885522161610425,-0.00017465825658291578,1.3412463665008545,-1.1506750583648682,-9.631181716918945
284499831000,-0.0006037728162482381,-0.0003269738226663321,-3.4636963391676545e-05,1.3690898418426514,-1.1769225597381592,-9.637481689453125
284506799000,-0.00028915415168739855,-0.00037032723776064813,-0.00022449082462117076,1.36347234249115,-1.1697748899459839,-9.6336088180542
284520638000,0.002336353762075305,0.00039737066254019737,-0.004003090783953667,1.3215296268463135,-1.1181447505950928,-9.639800071716309
284527574000,-0.0010869571706280112,0.0002745487727224827,0.0016439305618405342,1.399119257926941,-1.2068042755126953,-9.659194946289062
284534706000,-0.000836624123621732,-0.0004696651885751635,6.254987238207832e-05,1.345221757888794,-1.1564366817474365,-9.63477897644043
284541526000,-0.0005435540224425495,-0.0005610219086520374,-7.585623825434595e-05,1.3633966445922852,-1.1704620122909546,-9.63520336151123
284548454000,-0.00012572543346323073,-0.00035437470069155097,-9.620582568459213e-05,1.3668811321258545,-1.1735739707946777,-9.635541915893555
284562316000,0.0024888133630156517,0.00038934173062443733,-0.003890336025506258,1.3234059810638428,-1.1202287673950195,-9.641552925109863
284569268000,-0.0009841255377978086,0.00018613942665979266,0.001697664731182158,1.3981140851974487,-1.205120325088501,-9.658404350280762
284576181000,-0.0007769119110889733,-0.000546538271009922,7.466164970537648e-05,1.345062494277954,-1.1556233167648315,-9.634676933288574
284583168000,-0.0005456911167129874,-0.0006467518978752196,-6.570413097506389e-05,1.3632968664169312,-1.1698898077011108,-9.63524341583252
284597079000,0.00013968313578516245,-0.0002914232318289578,-0.0002279436739627272,1.3651739358901978,-1.1705584526062012,-9.63662338256836
284604012000,0.00021901843138039112,0.0010712691582739353,0.002211247105151415,1.3978337049484253,-1.1989567279815674,-9.662245750427246
284610915000,0.0024975391570478678,0.0004300476284697652,-0.0040268790908157825,1.3214538097381592,-1.1168632507324219,-9.64088249206543
284617930000,-0.0010297764092683792,0.0004003477515652776,0.0016452678246423602,1.400053858757019,-1.2068637609481812,-9.661635398864746
284624800000,-0.0009336674120277166,-0.000568237854167819,-5.583513484452851e-05,1.3426671028137207,-1.1526480913162231,-9.633275985717773
284638715000,-0.0003781807899940759,0.0007476661121472716,0.0022522048093378544,1.3965836763381958,-1.1989773511886597,-9.655900001525879
284645649000,0.002126604551449418,0.0002226848155260086,-0.003834077622741461,1.3233987092971802,-1.1210401058197021,-9.63957405090332
284652613000,-0.0012459134450182319,4.6782661229372025e-06,0.0017237827414646745,1.3977608680725098,-1.2056769132614136,-9.655820846557617
284659611000,-0.0008368061971850693,-0.000666584528516978,8.00701673142612e-06,1.3449209928512573,-1.155705213546753,-9.62854290008545
284666503000,-0.00031815358670428395,-0.0003713040496222675,4.678433469962329e-05,1.3680236339569092,-1.1756728887557983,-9.634965896606445
284680466000,0.000264822447206825,-0.00027125002816319466,-0.00020830638823099434,1.3648852109909058,-1.1703426837921143,-9.637581825256348
284687318000,0.0003096447326242924,0.0010535137262195349,0.002228174824267626,1.3976078033447266,-1.1986374855041504,-9.663592338562012
284694261000,0.002606916008517146,0.0005060896510258317,-0.0039042411372065544,1.3230650424957275,-1.1188589334487915,-9.642437934875488
284701239000,-0.0009398829424753785,0.000268974166829139,0.001693529193289578,1.397935390472412,-1.204538106918335,-9.659552574157715
284708159000,-0.0008015865460038185,-0.000510902376845479,6.009634307702072e-05,1.3446130752563477,-1.1548792123794556,-9.635525703430176
284722060000,-0.00025503378128632903,-0.00045398392830975354,-8.697365410625935e-05,1.3670254945755005,-1.1732755899429321,-9.63572883605957
284728970000,-5.634280387312174e-05,0.0008560781134292483,0.002266276627779007,1.3967745304107666,-1.1983925104141235,-9.657313346862793
284735963000,0.0023163054138422012,0.00022839871235191822,-0.003969788551330566,1.3215949535369873,-1.1176739931106567,-9.638886451721191
284742882000,-0.0011166110634803772,0.00023671373492106795,0.001678861677646637,1.4002891778945923,-1.2074559926986694,-9.659586906433105
284756746000,-0.00047798416926525533,-0.0004959067446179688,-7.247070607263595e-05,1.365962028503418,-1.1731865406036377,-9.6346435546875
284763749000,-5.454706843011081e-05,-0.0002693640417419374,-8.809370774542913e-05,1.367243766784668,-1.1739269495010376,-9.635762214660645
284770676000,9.192537982016802e-05,0.0009667155682109296,0.0022707628086209297,1.3962631225585938,-1.1980137825012207,-9.658902168273926
284777623000,3.641561488620937e-05,-0.00029671163065358996,1.870004962256644e-05,1.335426926612854,-1.1450886726379395,-9.628096580505371
284791460000,-0.000927669694647193,0.00024174636928364635,0.001635423512198031,1.4008809328079224,-1.207288146018982,-9.660848617553711
284798572000,-0.0007520620129071176,-0.00046650247531943023,6.01355750404764e-05,1.3457412719726562,-1.155887246131897,-9.635259628295898
284805371000,-0.0005402914830483496,-0.0005634551052935421,-7.643269782420248e-05,1.3635152578353882,-1.1697942018508911,-9.636215209960938
284812343000,-0.0003118447493761778,0.000730821629986167,0.0022706077434122562,1.396580696105957,-1.19852614402771,-9.65593433380127
284819310000,-0.0002374113246332854,-0.0003841242578346282,0.0001567617291584611,1.3376556634902954,-1.1483232975006104,-9.62820816040039
284833187000,0.0002566241309978068,-0.0002904899010900408,-6.767518061678857e-05,1.3667700290679932,-1.172623634338379,-9.639540672302246
284840081000,0.00036265875678509474,-0.0002061060513369739,-0.00010579746594885364,1.3657790422439575,-1.1710458993911743,-9.64206314086914
284847083000,0.00027953594690188766,0.0008665146888233721,0.0022686170414090157,1.3951255083084106,-1.1956840753555298,-9.663395881652832
284854061000,0.0025142792146652937,0.0003118707099929452,-0.004025670699775219,1.3215140104293823,-1.1164517402648926,-9.64063549041748
284860990000,-0.0010292837396264076,0.000350547197740525,0.0016496878815814853,1.400602102279663,-1.2067601680755615,-9.66154670715332
284874805000,-0.0006715224590152502,-0.0005120595451444387,-0.00010399776510894299,1.3650766611099243,-1.1721086502075195,-9.63685417175293
284881849000,-0.0002635714190546423,-0.0002804294053930789,-0.00011484509741421789,1.3671096563339233,-1.1738150119781494,-9.635852813720703
284888774000,-6.337586091831326e-05,0.0009120787144638598,0.002230403944849968,1.3957200050354004,-1.197716474533081,-9.656696319580078
284895683000,0.0023695649579167366,0.00045447039883583784,-0.003892319742590189,1.3234703540802002,-1.1206085681915283,-9.641359329223633
284902684000,-0.0010787365026772022,0.00024369003949686885,0.001685783383436501,1.397971272468567,-1.205275297164917,-9.658122062683105
284916971000,-0.0004062670632265508,-0.000466279627289623,2.6252797397319227e-05,1.3665233850479126,-1.1736377477645874,-9.637371063232422
284923493000,-9.925983613356948e-05,-0.00039847998414188623,-7.875292794778943e-05,1.3651905059814453,-1.1711161136627197,-9.635647773742676
284930438000,0.00012473718379624188,-0.00032707094214856625,-0.0002252634585602209,1.3647654056549072,-1.170135736465454,-9.636651039123535
284937423000,0.00021185760851949453,0.001055298955179751,0.002213774947449565,1.397959589958191,-1.1990412473678589,-9.662168502807617
284951289000,-0.001042802119627595,0.00039755343459546566,0.0016461883205920458,1.400093674659729,-1.2069060802459717,-9.661605834960938
284958274000,-0.0009466272895224392,-0.0005634354893118143,-5.902787233935669e-05,1.3426504135131836,-1.152617335319519,-9.6332368850708
284965291000,-0.0006456954288296402,-0.0005269740358926356,-0.00010169103916268796,1.365037441253662,-1.1724085807800293,-9.636639595031738
284972110000,-0.00022671307669952512,-0.0003085738862864673,-0.00011071591143263504,1.367017388343811,-1.1739354133605957,-9.635902404785156
284979065000,-2.5407527573406696e-05,0.0008744383230805397,0.002240606350824237,1.3956968784332275,-1.1977912187576294,-9.656903266906738
284992926000,-0.0010518442140892148,0.00020013953326269984,0.0016936175525188446,1.3979785442352295,-1.205267071723938,-9.658182144165039
285000008000,-0.0008830447914078832,-0.0006650364957749844,-3.188057598890737e-05,1.343086838722229,-1.1534912586212158,-9.63257122039795
285006835000,-0.0004987559514120221,-0.0005279490724205971,-9.102206968236715e-05,1.3659327030181885,-1.1728049516677856,-9.635465621948242
285013763000,-3.728980664163828e-05,-0.00017835767357610166,1.0881395610340405e-05,1.3690577745437622,-1.1759954690933228,-9.637630462646484
285027657000,0.00238142185844481,0.0002220183378085494,-0.003962708171457052,1.3207530975341797,-1.1169514656066895,-9.638737678527832
285034738000,-0.0010663112625479698,0.00022486841771751642,0.0016857151640579104,1.4001363515853882,-1.207319736480713,-9.65996265411377
285041548000,-0.0008772771107032895,-0.00066243892069906,-7.511182047892362e-06,1.3435418605804443,-1.1536386013031006,-9.632325172424316
285048722000,-0.0005029645399190485,-0.0005511262570507824,-6.489684892585501e-05,1.365639328956604,-1.1729000806808472,-9.634970664978027
285062366000,7.928803097456694e-05,0.0009521151660010219,0.002268687356263399,1.3963172435760498,-1.1980164051055908,-9.658677101135254
285069380000,0.0024251104332506657,0.00030640303157269955,-0.003980911802500486,1.3213082551956177,-1.1173127889633179,-9.639364242553711
285076257000,-0.0010328039061278105,0.0003049661172553897,0.0016734490636736155,1.4002141952514648,-1.20730721950531,-9.660421371459961
285083279000,-0.0008669766830280423,-0.0006084063206799328,-2.0359831978566945e-05,1.3433287143707275,-1.153408169746399,-9.632625579833984
285090211000,-0.0005375096225179732,-0.0005490808398462832,-7.861075573600829e-05,1.3652102947235107,-1.1724827289581299,-9.63574504852295
285104046000,5.1471637561917305e-05,0.0009446396725252271,0.0022648086305707693,1.3963674306869507,-1.1981000900268555,-9.6587553024292
285110971000,0.002408109838142991,0.00029569980688393116,-0.003971627447754145,1.321397066116333,-1.1175371408462524,-9.639359474182129
285118044000,-0.0010346859926357865,0.00019676698138937354,0.0016692528733983636,1.3993459939956665,-1.2065489292144775,-9.658974647521973
285124870000,-0.0007964239921420813,-0.000515550549607724,8.058373350650072e-05,1.3456040620803833,-1.1562851667404175,-9.634716033935547
285138795000,-0.00012245605466887355,-0.000374549999833107,-8.129456546157598e-05,1.3671066761016846,-1.1734440326690674,-9.635523796081543
285145742000,0.00018811762856785208,-0.0001764552143868059,-0.00011158003326272592,1.3668521642684937,-1.1728427410125732,-9.63835620880127
285152799000,0.0002278242027387023,0.0009309701272286475,0.002255148719996214,1.3954089879989624,-1.196601390838623,-9.660789489746094
285159667000,0.00256619555875659,0.00046439107973128557,-0.0039025696460157633,1.3233680725097656,-1.119470238685608,-9.642394065856934
285166644000,-0.0009640001808293164,0.000254560902249068,0.0016892440617084503,1.3981587886810303,-1.2046401500701904,-9.659357070922852
285180718000,-0.0006362214335240424,-0.0006435174727812409,-7.42756383260712e-05,1.3631794452667236,-1.1695780754089355,-9.636653900146484
285187419000,-0.0002280111366417259,-0.0004049832350574434,-8.578926644986495e-05,1.3673484325408936,-1.1735904216766357,-9.635641098022461
285194343000,-1.8260034266859293e-05,0.0008190494845621288,0.0022505447268486023,1.396091103553772,-1.1976966857910156,-9.656493186950684
285201381000,0.002405783860012889,0.0003816814860329032,-0.003882504301145673,1.3237874507904053,-1.1204527616500854,-9.641265869140625
285215243000,-0.000817163148894906,-0.0005318569019436836,8.396166958846152e-05,1.3454253673553467,-1.1560051441192627,-9.634085655212402
285222176000,-0.0005733914440497756,-0.0006921167951077223,-0.00017171309445984662,1.3621426820755005,-1.1681281328201294,-9.633186340332031
285229237000,-7.759197615087032e-05,-0.00027181685436517,-0.0001159629609901458,1.3694201707839966,-1.1757519245147705,-9.63597583770752
285236128000,0.00015330445603467524,-0.00020848598796874285,-0.00024516787379980087,1.3650436401367188,-1.1703847646713257,-9.637238502502441
285250483000,7.462363282684237e-05,-0.00015009287744760513,-4.9113463319372386e-05,1.336930513381958,-1.1456981897354126,-9.630400657653809
285257296000,0.0001323155011050403,-0.0002629781374707818,-7.167001604102552e-05,1.3641853332519531,-1.1706056594848633,-9.643304824829102
285264318000,0.00027955076075159013,-0.00038183084689080715,-0.0002049109898507595,1.3636075258255005,-1.1698634624481201,-9.642910957336426
285271174000,9.887508349493146e-05,0.000799604575149715,0.002248418517410755,1.3962639570236206,-1.1967211961746216,-9.665755271911621
285285031000,-0.0012219820637255907,0.000212316052056849,0.001645191921852529,1.4004980325698853,-1.206770896911621,-9.66076374053955
285291887000,-0.0009791036136448383,-0.0007924032397568226,-0.00011863282998092473,1.3419189453125,-1.1526705026626587,-9.630191802978516
285299020000,-0.0005924317520111799,-0.000503849470987916,-0.000136931223096326,1.3672325611114502,-1.1739104986190796,-9.634943962097168
285305833000,-0.0001858443720266223,-0.00022534238814841956,-0.0001454400335205719,1.3675001859664917,-1.1737810373306274,-9.635007858276367
285312896000,-2.688029780983925e-06,0.0009870008798316121,0.002209798898547888,1.3960018157958984,-1.1976466178894043,-9.656984329223633
285326788000,-0.0011126494500786066,0.0004002281348221004,0.0016320457216352224,1.4002872705459595,-1.2074790000915527,-9.66081714630127
285333689000,-0.0009576552547514439,-0.0005447156727313995,-6.30644426564686e-05,1.3429111242294312,-1.1532249450683594,-9.632621765136719
285340491000,-0.0005929014296270907,-0.00047516493941657245,-0.0001097808635677211,1.3653024435043335,-1.1728907823562622,-9.635418891906738
285354432000,4.9645197577774525e-05,0.0009158194297924638,0.0022318961564451456,1.3958847522735596,-1.1979444026947021,-9.657562255859375
285361318000,0.0024604657664895058,0.00043301028199493885,-0.003901140298694372,1.3232616186141968,-1.1203067302703857,-9.641647338867188
285368299000,-0.00100271450355649,0.00021572411060333252,0.001689436729066074,1.398057222366333,-1.2052470445632935,-9.65855884552002
285375208000,-0.0008371605072170496,-0.0006425800384022295,-4.379120218800381e-05,1.3432114124298096,-1.1533995866775513,-9.633191108703613
285382462000,-0.0005183853791095316,-0.000572127930354327,-9.053948451764882e-05,1.365439534187317,-1.1722432374954224,-9.636272430419922
285396292000,8.813326712697744e-05,0.0008920792606659234,0.002311709336936474,1.394722819328308,-1.1962354183197021,-9.65872859954834
285403299000,0.002406529150903225,0.00021449069026857615,-0.00396502111107111,1.3207859992980957,-1.1167362928390503,-9.6388578414917
285410249000,-0.0010563621763139963,0.00022007699590176344,0.0016832820838317275,1.4002069234848022,-1.2071565389633179,-9.660090446472168
285417277000,-0.0008929368923418224,-0.0006843485170975327,-9.744457202032208e-06,1.3435767889022827,-1.1535067558288574,-9.632209777832031
285431117000,-7.331706001423299e-05,-0.00030070776119828224,-8.918697130866349e-05,1.367464303970337,-1.1739528179168701,-9.63564395904541
285438127000,0.00020506972214207053,-0.00013114749162923545,-0.00012320584210101515,1.3665502071380615,-1.172505259513855,-9.63870906829834
285445009000,0.00022393802646547556,0.0009547825902700424,0.0022503926884382963,1.3952651023864746,-1.1964895725250244,-9.661181449890137
285451983000,0.0025585689581930637,0.0004830526886507869,-0.003910241182893515,1.3232855796813965,-1.1193995475769043,-9.64255428314209
285458938000,-0.0009790943004190922,0.0002596437116153538,0.0016878742026165128,1.3980623483657837,-1.204636812210083,-9.659390449523926
285472744000,-0.0006461025914177299,-0.0006463452009484172,-7.390980317723006e-05,1.3631185293197632,-1.1695876121520996,-9.636667251586914
285479689000,-0.00023085009888745844,-0.0004008296236861497,-9.192083962261677e-05,1.3673673868179321,-1.1735883951187134,-9.63573169708252
285486683000,-2.495670923963189e-05,0.0008194067631848156,0.00224734703078866,1.3960627317428589,-1.1976933479309082,-9.656516075134277
285493571000,0.002404870931059122,0.00038201583083719015,-0.0038746579084545374,1.3238584995269775,-1.1206258535385132,-9.641313552856445
285507449000,-0.0008300874033011496,-0.0005539740086533129,8.469910244457424e-05,1.3452131748199463,-1.1558626890182495,-9.6337308883667
285514449000,-0.000573024561163038,-0.0007004245417192578,-0.0001732289674691856,1.3622245788574219,-1.1682170629501343,-9.63292407989502
285521494000,-6.624456727877259e-05,-0.0002683867351152003,-0.00011295315198367462,1.369553804397583,-1.1759055852890015,-9.635931015014648
285528305000,0.00016797895659692585,-0.0002005802234634757,-0.00024606563965789974,1.3650635480880737,-1.1703811883926392,-9.63734245300293
285542225000,7.962108793435618e-05,-0.00015265443653333932,-4.3225387344136834e-05,1.3353958129882812,-1.1444138288497925,-9.629664421081543
285549191000,0.0024979738518595695,0.0003558218013495207,-0.004130121320486069,1.3497464656829834,-1.1417855024337769,-9.654864311218262
285556079000,-0.0010129553265869617,0.0003168996190652251,0.0016024286160245538,1.4007189273834229,-1.2070820331573486,-9.66195297241211
285563050000,-0.0008824348333291709,-0.00044739083386957645,2.448193117743358e-05,1.3450971841812134,-1.1555677652359009,-9.635655403137207
285570004000,-0.000766314216889441,0.000461468385765329,0.0022957350593060255,1.3929311037063599,-1.1953991651535034,-9.655420303344727
285576905000,-0.0006746145663782954,-0.000723295786883682,4.1654340748209506e-05,1.3356916904449463,-1.1467074155807495,-9.625398635864258
285590817000,0.0001754606782924384,-0.00029620464192703366,-6.26807232038118e-05,1.3652251958847046,-1.171454906463623,-9.635963439941406
285597775000,0.00038406840758398175,-0.000157929549459368,-0.00010751759691629559,1.3661600351333618,-1.1718276739120483,-9.64012622833252
285604767000,0.00038222683360800147,-0.00022566024563275278,-0.000242221329244785,1.3638181686401367,-1.1683907508850098,-9.642007827758789
285611648000,0.0002831420861184597,0.0010454528965055943,0.0022164012771099806,1.3972465991973877,-1.197686791419983,-9.666561126708984
285618630000,0.002519412199035287,0.0005010132445022464,-0.003935280255973339,1.3227119445800781,-1.1180869340896606,-9.642577171325684
285632541000,-0.0009762714616954327,-0.0006031547673046589,-7.052590081002563e-05,1.3426692485809326,-1.1524993181228638,-9.633739471435547
285639436000,-0.0007013188442215323,-0.0005478226812556386,-0.00011599146091612056,1.3652101755142212,-1.1719510555267334,-9.637127876281738
285646355000,-0.0004380379687063396,0.0007718349806964397,0.00223918235860765,1.3966768980026245,-1.1989450454711914,-9.655561447143555
285653360000,0.0020517599768936634,0.00024266447871923447,-0.0038444853853434324,1.3231925964355469,-1.1208997964859009,-9.639264106750488
285667280000,-0.0006990146939642727,-0.0006086608627811074,5.19181921845302e-05,1.345483422279358,-1.1581367254257202,-9.62751293182373
285674127000,-0.0002727272512856871,-0.00039205519715324044,4.934253593091853e-05,1.3668334484100342,-1.174306035041809,-9.6350736618042
285681119000,5.7314231526106596e-05,-0.0003230706788599491,-6.139275501482189e-05,1.3652032613754272,-1.1712963581085205,-9.635398864746094
285688057000,0.00031702412525191903,-0.0001531532034277916,-0.00010362455941503868,1.3664793968200684,-1.1723142862319946,-9.639558792114258
285702170000,0.0025613675825297832,0.0003540036268532276,-0.004014376550912857,1.3217219114303589,-1.117085576057434,-9.641219139099121
285708916000,-0.0009854650124907494,0.0003469391376711428,0.001655088854022324,1.4001966714859009,-1.2066518068313599,-9.661844253540039
285715950000,-0.0009201399516314268,-0.0006012317608110607,-5.344933015294373e-05,1.342789888381958,-1.1523165702819824,-9.633387565612793
285722796000,-0.000647583045065403,-0.0005534980446100235,-0.00010309666686225682,1.3651647567749023,-1.1721000671386719,-9.637124061584473
285729788000,-0.0002508242323528975,-0.00032948466832749546,-0.00010757263225968927,1.3671276569366455,-1.1737794876098633,-9.635908126831055
285743616000,0.002373269060626626,0.0004201149567961693,-0.003892617067322135,1.3234806060791016,-1.1204360723495483,-9.64142894744873
285750608000,-0.0010906718671321869,0.00019946403335779905,0.0016935673775151372,1.3979417085647583,-1.2051857709884644,-9.65790843963623
285757493000,-0.0009022018639370799,-0.0006504228804260492,-2.8295835363678634e-05,1.3432767391204834,-1.1536906957626343,-9.632209777832031
285764463000,-0.0005041952827014029,-0.0005073010688647628,-8.809355495031923e-05,1.366013765335083,-1.1729044914245605,-9.635199546813965
285778368000,4.063209053128958e-05,0.0009093969129025936,0.002312997356057167,1.3944097757339478,-1.1962571144104004,-9.6582612991333
285785328000,0.0023892302997410297,0.00023665593471378088,-0.003958994057029486,1.3208487033843994,-1.1170654296875,-9.63881778717041
285792225000,-0.001052350620739162,0.00024248205590993166,0.0016863964265212417,1.4002059698104858,-1.2073546648025513,-9.660136222839355
285799241000,-0.0008669687667861581,-0.0006482384633272886,-9.354807843919843e-06,1.3435428142547607,-1.1535807847976685,-9.632485389709473
285813049000,-8.404083200730383e-05,-0.00030922406585887074,-8.282347698695958e-05,1.3674308061599731,-1.1740609407424927,-9.635762214660645
285820051000,0.000208602417842485,-0.00013525654503609985,-0.00010905390081461519,1.3666377067565918,-1.1727367639541626,-9.638782501220703
285826967000,0.0002058038953691721,0.0010167141444981098,0.00227099796757102,1.3956630229949951,-1.1969819068908691,-9.662196159362793
285833984000,0.0024711850564926863,0.00033514853566884995,-0.004000821616500616,1.320784091949463,-1.1163569688796997,-9.640029907226562
285840840000,-0.001008843071758747,0.000255337858106941,0.0016523771919310093,1.3996237516403198,-1.2063878774642944,-9.660343170166016
285854770000,-0.0006153464200906456,-0.0005968533805571496,-7.275715324794874e-05,1.363411784172058,-1.1699575185775757,-9.636637687683105
285861684000,-0.00022134932805784047,-0.00038427140680141747,-8.845675620250404e-05,1.3670233488082886,-1.173415184020996,-9.635750770568848
285868697000,-1.6419508028775454e-05,0.0008272266713902354,0.002250132616609335,1.3959460258483887,-1.197688102722168,-9.65668773651123
285875630000,0.002411621157079935,0.0003849554341286421,-0.003874833695590496,1.3237475156784058,-1.1205817461013794,-9.641329765319824
285889468000,-0.0008178254938684404,-0.0005414194893091917,8.537089161109179e-05,1.3453036546707153,-1.1559486389160156,-9.634202003479004
285896389000,-0.0004224355216138065,-0.0007183566340245306,-0.00012360690743662417,1.3622989654541016,-1.1700165271759033,-9.632599830627441
285903381000,-1.6128498828038573e-05,-0.0003598502662498504,-9.796544327400625e-05,1.368550419807434,-1.174557089805603,-9.636336326599121
285910292000,0.00035655355895869434,-0.00027487374609336257,-0.00018845245358534157,1.3655743598937988,-1.1721309423446655,-9.63713550567627
285924193000,0.0025672735646367073,0.0004911166615784168,-0.003932551480829716,1.323009729385376,-1.1180696487426758,-9.642683029174805
285931112000,-0.0010087740374729037,0.00027908204356208444,0.0016746872570365667,1.3982410430908203,-1.2043712139129639,-9.65983772277832
285938089000,-0.0007792179239913821,-0.0006146632367745042,-2.062790736090392e-05,1.3432376384735107,-1.1543813943862915,-9.633404731750488
285945009000,-0.0006189722334966063,-0.0006337372469715774,-0.00010614965140121058,1.3644139766693115,-1.1703945398330688,-9.637646675109863
285951989000,-0.00024710717843845487,-0.0003756564110517502,-0.00011480954708531499,1.3675893545150757,-1.17331063747406,-9.636298179626465
285965873000,-0.00015081683523021638,-0.0003215713950339705,-2.8484209906309843e-06,1.3355191946029663,-1.1450364589691162,-9.627875328063965
285972818000,-5.375203909352422e-05,-0.000445585377747193,-0.00021041897707618773,1.362630844116211,-1.1682677268981934,-9.638339042663574
285979734000,0.00018282333621755242,-0.00017324551299680024,-0.00015055494441185147,1.368153691291809,-1.1738550662994385,-9.64205265045166
285986737000,0.00012658641207963228,0.0009772604098543525,0.0022513314615935087,1.3957982063293457,-1.1967763900756836,-9.663433074951172
285993634000,0.0023939860984683037,0.00033333117607980967,-0.004024330526590347,1.3210150003433228,-1.1163305044174194,-9.640069961547852
286007530000,-0.0009094785200431943,-0.00046443170867860317,3.91823414247483e-05,1.345301628112793,-1.1557698249816895,-9.63521671295166
286014461000,-0.0007201179396361113,-0.0006792218773625791,-0.00019686705491039902,1.3615726232528687,-1.167805790901184,-9.63383674621582
286021439000,-0.0001537010830361396,-0.00013820797903463244,-1.9895745936082676e-05,1.3711118698120117,-1.1782984733581543,-9.637370109558105
286028362000,-3.7099700421094894e-05,0.0009643380763009191,0.002285739639773965,1.3945908546447754,-1.1965495347976685,-9.657648086547852
286042244000,-0.0011196562554687262,0.0002660918398760259,0.0016746183391660452,1.3999217748641968,-1.2074456214904785,-9.659825325012207
286049219000,-0.0009006262407638133,-0.0006183703080751002,-1.4401986845768988e-05,1.3435328006744385,-1.153945803642273,-9.632087707519531
286056169000,-0.0005144726601429284,-0.0005175644182600081,-7.770155934849754e-05,1.3654121160507202,-1.1729261875152588,-9.634700775146484
286063061000,-7.258445839397609e-05,-0.00027766270795837045,-8.773668378125876e-05,1.3672481775283813,-1.1741644144058228,-9.635653495788574
286070058000,0.0001072251470759511,0.0008979587582871318,0.002252582460641861,1.3956366777420044,-1.197517991065979,-9.657768249511719
286083963000,-0.000979869393631816,0.0002163515891879797,0.0016993193421512842,1.398085594177246,-1.2051174640655518,-9.6585693359375
286090875000,-0.0007836887962184846,-0.0005329885170795023,8.161603182088584e-05,1.344925045967102,-1.155583143234253,-9.634696960449219
286097787000,-0.0005407165153883398,-0.0006208478007465601,-6.348869646899402e-05,1.3634545803070068,-1.1699986457824707,-9.635889053344727
286104767000,-0.0001394519058521837,-0.00038798723835498095,-7.97723769210279e-05,1.3672077655792236,-1.1735186576843262,-9.635736465454102
286118680000,0.00021460553398355842,0.0009356566006317735,0.0022545477841049433,1.3953917026519775,-1.1965935230255127,-9.660646438598633
286125622000,0.002547658747062087,0.00046967773232609034,-0.0039030401967465878,1.3232825994491577,-1.1194369792938232,-9.642478942871094
286132604000,-0.0009903681930154562,0.00025168946012854576,0.0016912617720663548,1.3979979753494263,-1.2046048641204834,-9.659274101257324
286139465000,-0.0008351205033250153,-0.0005029812455177307,5.8801204431802034e-05,1.3447667360305786,-1.1550558805465698,-9.635330200195312
286146397000,-0.0006439950666390359,-0.0006322223925963044,-7.018055475782603e-05,1.363142967224121,-1.1696717739105225,-9.63634204864502
286160310000,-1.733400858938694e-05,0.0008375083561986685,0.002249727724120021,1.396007776260376,-1.1976885795593262,-9.6565523147583
286167367000,0.0024024026934057474,0.00039393280167132616,-0.00387864513322711,1.3236669301986694,-1.120474100112915,-9.641339302062988
286174229000,-0.0010696209501475096,0.00018047605408355594,0.0017043494153767824,1.397963285446167,-1.2050682306289673,-9.657733917236328
286181164000,-0.0008271826081909239,-0.000528323813341558,8.104622975224629e-05,1.3452774286270142,-1.1559325456619263,-9.63410758972168
286188165000,-0.000581073691137135,-0.0006911968812346458,-0.00016109022544696927,1.3621100187301636,-1.1683011054992676,-9.633100509643555
286202029000,0.0001518941280664876,-0.00020436322665773332,-0.00024010497145354748,1.3649611473083496,-1.1704230308532715,-9.6372709274292
286208902000,0.00020775152370333672,0.0011203840840607882,0.002206401200965047,1.3975944519042969,-1.1988345384597778,-9.662903785705566
286215943000,0.0024756677448749542,0.0004573717014864087,-0.0040377723053097725,1.3212021589279175,-1.116680383682251,-9.641029357910156
286222835000,-0.0010491486173123121,0.0004199438844807446,0.0016405506758019328,1.400050163269043,-1.2069413661956787,-9.661909103393555
286229756000,-0.0009558429592289031,-0.0005645266501232982,-5.753582081524655e-05,1.3425548076629639,-1.1526522636413574,-9.633390426635742
286243666000,-0.00024478102568536997,-0.00034007529029622674,-0.00010650066542439163,1.3670114278793335,-1.1739637851715088,-9.635995864868164
286250653000,-3.197381738573313e-05,0.0008505502482876182,0.002240160945802927,1.3958193063735962,-1.19784414768219,-9.656906127929688
286257547000,0.0024010033812373877,0.00038785755168646574,-0.0038809534162282944,1.3235594034194946,-1.1206480264663696,-9.641505241394043
286264465000,-0.00106234906706959,0.00016067700926214457,0.0017023016698658466,1.3978725671768188,-1.2051444053649902,-9.657881736755371
286278369000,-0.0005680063623003662,-0.0007240150589495897,-0.00016781289014033973,1.3621959686279297,-1.1683523654937744,-9.633047103881836
286285497000,-5.851834430359304e-05,-0.000293825869448483,-0.00010696730169001967,1.3694751262664795,-1.1759397983551025,-9.63596248626709
286292271000,0.00011404347606003284,0.0009037426207214594,0.002241745823994279,1.3959895372390747,-1.1975054740905762,-9.657829284667969
286299261000,0.0024937510024756193,0.00043243670370429754,-0.003891088766977191,1.3234636783599854,-1.1200555562973022,-9.641594886779785
286306154000,-0.0009888088097795844,0.0002243038616143167,0.001695204176940024,1.3981752395629883,-1.2050001621246338,-9.658552169799805
286320089000,-0.0005562478909268975,-0.000614807300735265,-6.72782989568077e-05,1.3635473251342773,-1.1699752807617188,-9.636048316955566
286326979000,-0.00016502744983881712,-0.0003909086517523974,-9.563147614244372e-05,1.3671449422836304,-1.173263669013977,-9.635773658752441
286334013000,9.040875011123717e-05,-0.0003063672920688987,-0.00022590214211959392,1.3651701211929321,-1.1705793142318726,-9.63647747039795
286340868000,0.00018716487102210522,0.0010649655014276505,0.00220970599912107,1.3979829549789429,-1.1990643739700317,-9.661972999572754
286354816000,0.0024843881838023663,0.0003232236485928297,-0.004128073807805777,1.349792242050171,-1.1417768001556396,-9.65445327758789
286361708000,-0.001011184765957296,0.00030763918766751885,0.0016030140686780214,1.400904655456543,-1.2071990966796875,-9.661713600158691
286368769000,-0.0008737316820770502,-0.0004467181861400604,3.0365710699697956e-05,1.3452153205871582,-1.1556894779205322,-9.635390281677246
286375615000,-0.0007531784358434379,0.00046486599603667855,0.0023007637355476618,1.3929089307785034,-1.1954164505004883,-9.654988288879395
286389530000,-0.0001250352361239493,-0.0003640599315986037,5.210695962887257e-05,1.3680399656295776,-1.1753681898117065,-9.634927749633789
286396430000,0.00017419895448256284,-0.00030250492272898555,-6.136324373073876e-05,1.3650165796279907,-1.1712026596069336,-9.63619327545166
286403471000,0.0003760097606573254,-0.00016603732365183532,-0.0001063291565515101,1.3661514520645142,-1.1717731952667236,-9.640259742736816
286410320000,0.0004171962500549853,-0.0001229909248650074,-0.00013130609295330942,1.3655234575271606,-1.170622706413269,-9.643587112426758
286417337000,0.00030066416366025805,0.0009311422472819686,0.002251738216727972,1.3950303792953491,-1.1954859495162964,-9.6643705368042
286431140000,-0.0010411448311060667,0.0002940416452474892,0.0016245006117969751,1.399887204170227,-1.206007719039917,-9.661137580871582
286438152000,-0.0009119290625676513,-0.00043924042256549,2.2795360564487055e-05,1.345116138458252,-1.155149221420288,-9.635920524597168
286445071000,-0.0007941847434267402,-0.0006914031109772623,-0.00021645036758854985,1.3612098693847656,-1.1671395301818848,-9.63509464263916
286452042000,-0.00013606433640234172,-0.00026866557891480625,-0.00010276210377924144,1.3696717023849487,-1.1778109073638916,-9.635619163513184
286465899000,0.0022961937356740236,0.00029493041802197695,-0.003997864667326212,1.3209941387176514,-1.1171188354492188,-9.639193534851074
286472832000,-0.0011357937473803759,0.00021849031327292323,0.0016432785196229815,1.399463415145874,-1.206680178642273,-9.659122467041016
286479793000,-0.000878114253282547,-0.0004789019003510475,5.809301364934072e-05,1.345507025718689,-1.1564284563064575,-9.633658409118652
286486805000,-0.0005639673327095807,-0.0005250719841569662,-8.05317031336017e-05,1.3637359142303467,-1.1706299781799316,-9.634424209594727
286500688000,7.063226075842977e-05,0.0008988174959085882,0.0022442652843892574,1.395783543586731,-1.1977078914642334,-9.657292366027832
286507578000,0.002478880574926734,0.00043406011536717415,-0.0038903390523046255,1.3233965635299683,-1.120302677154541,-9.641613006591797
286514500000,-0.000995292910374701,0.00022058241302147508,0.0016961990622803569,1.397995114326477,-1.205104947090149,-9.658426284790039
286521478000,-0.0007861867197789252,-0.0005206606583669782,7.673585787415504e-05,1.3449808359146118,-1.155677318572998,-9.634724617004395
286528415000,-0.0005388804711401463,-0.0006113473209552467,-6.254682375583798e-05,1.3634370565414429,-1.17008376121521,-9.635765075683594
286542276000,6.0846214182674885e-05,0.0008390319999307394,0.002251093741506338,1.3961117267608643,-1.1976838111877441,-9.657234191894531
286549271000,0.0024640001356601715,0.00039538147393614054,-0.003885079873725772,1.3236466646194458,-1.1202596426010132,-9.641496658325195
286556201000,-0.0010149525478482246,0.00019709422485902905,0.001698496751487255,1.3981363773345947,-1.2050155401229858,-9.658185958862305
286563124000,-0.0008040618267841637,-0.0005280172917991877,7.798393198754638e-05,1.3451679944992065,-1.1556816101074219,-9.63451862335205
286577067000,-0.00013867701636627316,-0.00036653195274993777,-8.266905206255615e-05,1.3673655986785889,-1.1736581325531006,-9.635276794433594
286584209000,0.00013369115185923874,-0.00026247528148815036,-0.0002262192138005048,1.365229845046997,-1.1706255674362183,-9.636856079101562
286591081000,0.00023970950860530138,0.001061138929799199,0.002197827445343137,1.3973455429077148,-1.198996901512146,-9.66166877746582
286597970000,0.00251471484079957,0.00043276487849652767,-0.004024991765618324,1.3217288255691528,-1.1170185804367065,-9.641073226928711
286604967000,-0.0010139355435967445,0.0004099139478057623,0.0016474658623337746,1.400154948234558,-1.2068672180175781,-9.661803245544434
286618850000,-0.0006556698936037719,-0.0005440133973024786,-0.00010446276428410783,1.364771842956543,-1.1720106601715088,-9.637286186218262
286625767000,-0.00025206751888617873,-0.0003392426879145205,-0.00010645519068930298,1.367016077041626,-1.1738653182983398,-9.636070251464844
286632813000,-4.350324161350727e-05,0.0008537954417988658,0.00223945383913815,1.3958252668380737,-1.1977860927581787,-9.656879425048828
286639671000,0.0023903483524918556,0.00039568787906318903,-0.0038800276815891266,1.323609471321106,-1.1206709146499634,-9.641469955444336
286646609000,-0.0010719550773501396,0.00016924069495871663,0.0017009477596729994,1.3978662490844727,-1.205124855041504,-9.657814979553223
286660482000,-0.0005258238525129855,-0.0006038029678165913,-5.8263591199647635e-05,1.3639134168624878,-1.1706230640411377,-9.634571075439453
286667495000,-0.00010250069317407906,-0.00036459314287640154,-8.286332013085485e-05,1.3672124147415161,-1.1735910177230835,-9.63515853881836
286674448000,0.00010156055213883519,0.0008566934266127646,0.002253800630569458,1.3961153030395508,-1.1976871490478516,-9.657279968261719
286681330000,0.002500247210264206,0.000402301549911499,-0.0038804919458925724,1.3236286640167236,-1.120234727859497,-9.64143180847168
286688308000,-0.0009769347961992025,0.00020372221479192376,0.0017027409048750997,1.3982094526290894,-1.2050269842147827,-9.658306121826172
286702206000,-0.000535487022716552,-0.0006152818677946925,-5.6207660236395895e-05,1.363666296005249,-1.1701158285140991,-9.635794639587402
286709106000,-0.00013959023635834455,-0.0003848163178190589,-8.517350943293422e-05,1.3672020435333252,-1.173322081565857,-9.635726928710938
286716135000,0.00011887800064869225,-0.00028932918212376535,-0.0002224760828539729,1.365254282951355,-1.1705597639083862,-9.636796951293945
286723031000,0.00020146917086094618,0.001062784343957901,0.0022117753978818655,1.397775650024414,-1.198919653892517,-9.66206169128418
286729956000,0.0025318688713014126,0.0005369372665882111,-0.003909408580511808,1.3233513832092285,-1.1192529201507568,-9.642415046691895
286743857000,-0.0009109771344810724,-0.0006174209411256015,-5.3805291827302426e-05,1.3426754474639893,-1.152661681175232,-9.633377075195312
286750824000,-0.0006022497545927763,-0.000546769006177783,-9.651937580201775e-05,1.3656522035598755,-1.1723231077194214,-9.637394905090332
286757741000,-0.00022050621919333935,-0.00034164273529313505,-0.00011120540148112923,1.367055892944336,-1.1733314990997314,-9.63625717163086
286764690000,-5.052005872130394e-05,0.0009271540911868215,0.002251381054520607,1.3965227603912354,-1.1982409954071045,-9.658143043518066
286771675000,-9.485834743827581e-05,-0.0003376075765118003,1.5439278286066838e-05,1.3354588747024536,-1.1453253030776978,-9.62781810760498
286785767000,0.00016504316590726376,-0.00038333877455443144,-0.00021798416855745018,1.3642383813858032,-1.1693695783615112,-9.640579223632812
286792536000,0.0002980351564474404,-0.00015733239706605673,-0.00015251713921315968,1.3677579164505005,-1.1730377674102783,-9.643876075744629
286799448000,0.00016099296044558287,0.0009603086509741843,0.002254399238154292,1.395429015159607,-1.1960697174072266,-9.664875984191895
286806473000,0.0023657979909330606,0.00029229396022856236,-0.004021867644041777,1.3206372261047363,-1.1157580614089966,-9.639994621276855
286820340000,-0.0008424310362897813,-0.0005984887247905135,-3.1673953344579786e-05,1.3437906503677368,-1.1553006172180176,-9.633105278015137
286827239000,-0.0006158608593977988,-0.000567191164009273,-0.00011712696868926287,1.364579200744629,-1.170960783958435,-9.63626480102539
286834232000,-0.00021902949083596468,-0.00030263973167166114,-0.00012628214608412236,1.3673865795135498,-1.1735130548477173,-9.635748863220215
286841102000,-5.469413008540869e-05,0.0009898541029542685,0.002232930390164256,1.3964937925338745,-1.1981632709503174,-9.658041954040527
286848031000,0.002288451651111245,0.0003289694432169199,-0.003997485619038343,1.3210481405258179,-1.1174122095108032,-9.639114379882812
286861962000,-0.0008568232879042625,-0.000447635306045413,6.142053462099284e-05,1.345645785331726,-1.1566964387893677,-9.63410758972168
286868940000,-0.0006189853884279728,-0.0006522414623759687,-0.00018336248467676342,1.3615317344665527,-1.1681357622146606,-9.632843971252441
286875859000,-9.185301314573735e-05,-0.00023420233628712595,-0.00012125657667638734,1.369247317314148,-1.1760951280593872,-9.635953903198242
286882843000,8.980860002338886e-05,0.0009423869196325541,0.0022331804502755404,1.3957188129425049,-1.197676181793213,-9.65785026550293
286896649000,-0.0009926437633112073,0.00024332135217264295,0.001687420066446066,1.3979551792144775,-1.2051239013671875,-9.658685684204102
286903677000,-0.0007905539823696017,-0.0005071479827165604,6.3724561186973e-05,1.344852089881897,-1.155563235282898,-9.634963035583496
286910552000,-0.000606822781264782,-0.0007313813548535109,-0.00017798123008105904,1.3615339994430542,-1.167752742767334,-9.634425163269043
286917578000,-0.0001139877422247082,-0.00031217499054037035,-0.00012124225759180263,1.3693009614944458,-1.1757597923278809,-9.636558532714844
286924435000,4.897377220913768e-05,0.000872459844686091,0.002239554189145565,1.3958520889282227,-1.1975497007369995,-9.65754222869873
286938361000,-0.0010276340181007981,0.0002162064192816615,0.0016859093448147178,1.3982001543045044,-1.2051234245300293,-9.658482551574707
286945284000,-0.000836775463540107,-0.0005422765389084816,6.623352237511426e-05,1.344794511795044,-1.1554580926895142,-9.634288787841797
286952287000,-0.0006031592492945492,-0.0007110401056706905,-0.0001807700318749994,1.3620593547821045,-1.1681318283081055,-9.633660316467285
286959177000,-0.00010195554932579398,-0.0002861840766854584,-0.0001193097559735179,1.3694262504577637,-1.1758607625961304,-9.636167526245117
286966140000,7.311982335522771e-05,0.0009101717732846737,0.002234261017292738,1.3960076570510864,-1.1975873708724976,-9.657724380493164
286979986000,-0.0010180140379816294,0.00023417797638103366,0.0016844643978402019,1.398200511932373,-1.2050930261611938,-9.658539772033691
286987079000,-0.0008294240105897188,-0.0005272072739899158,5.875913848285563e-05,1.3448747396469116,-1.155419945716858,-9.634490013122559
286993931000,-0.0006131042027845979,-0.0007188909803517163,-0.00018261736840941012,1.3619476556777954,-1.1680198907852173,-9.63386058807373
287000923000,-0.00010813178960233927,-0.0002937957178801298,-0.00011830683797597885,1.3695253133773804,-1.1759213209152222,-9.636295318603516
287007848000,0.0001271780056413263,-0.00022572700981982052,-0.00025941719650290906,1.3649741411209106,-1.1702828407287598,-9.637256622314453
287021744000,0.002447569975629449,0.0004290256183594465,-0.004045125562697649,1.3210657835006714,-1.1165809631347656,-9.64067268371582
287028637000,-0.001040197443217039,0.00032907159766182303,0.0016213158378377557,1.3996490240097046,-1.2064425945281982,-9.660809516906738
287035700000,-0.0008895594510249794,-0.00046235520858317614,2.3737848096061498e-05,1.3447414636611938,-1.1554975509643555,-9.635388374328613
287042515000,-0.0007224162109196186,-0.0007183293928392231,-0.0002073832874884829,1.361392617225647,-1.1678621768951416,-9.634754180908203
287056432000,-4.8904039431363344e-05,0.0008962427964434028,0.002289615338668227,1.3946462869644165,-1.1965510845184326,-9.657693862915039
287063354000,-8.725456427782774e-05,-0.00038483671960420907,1.7511567421024665e-05,1.335015058517456,-1.1449589729309082,-9.627458572387695
287070326000,7.153075421229005e-05,-0.000396860355976969,-9.141483315033838e-05,1.3643338680267334,-1.170582890510559,-9.64046573638916
287077299000,0.00016545646940357983,-0.00043320460827089846,-0.00021963060135021806,1.364099383354187,-1.169260025024414,-9.640118598937988
287084251000,0.0001885949750430882,0.0009143542847596109,0.0022226052824407816,1.397718906402588,-1.1985315084457397,-9.663655281066895
287098081000,-0.0010677939280867577,0.00031081028282642365,0.0016500279307365417,1.4002724885940552,-1.206865906715393,-9.660902976989746
287105080000,-0.000951221736613661,-0.0006067916983738542,-5.453814083011821e-05,1.3430368900299072,-1.1528058052062988,-9.632718086242676
287111968000,-0.0006726454012095928,-0.0006323523120954633,-0.0002197250141762197,1.3636525869369507,-1.170210599899292,-9.634427070617676
287118960000,-0.00013002112973481417,-0.00010646584996720776,-3.5766028304351494e-05,1.3709909915924072,-1.1783685684204102,-9.63776969909668
287125886000,-2.8166454285383224e-05,0.0009819347178563476,0.002278366591781378,1.3945436477661133,-1.1965073347091675,-9.658048629760742
287139814000,-0.0011125446762889624,0.0002796178450807929,0.0016665415605530143,1.3999766111373901,-1.2075105905532837,-9.660005569458008
287146692000,-0.0009215279715135694,-0.0006410612259060144,-2.491188934072852e-05,1.3431322574615479,-1.1536264419555664,-9.632076263427734
287153713000,-0.0005185620975680649,-0.0005322101060301065,-7.675346569158137e-05,1.3655784130096436,-1.1731972694396973,-9.634612083435059
287160582000,-6.891251541674137e-05,-0.00029155012452974916,-9.401601710123941e-05,1.3672000169754028,-1.1741456985473633,-9.635515213012695
287167613000,0.00012195593444630504,0.0008903011330403388,0.0022515244781970978,1.3956940174102783,-1.1976279020309448,-9.65767765045166
287181414000,-0.0009494598489254713,0.0002177935093641281,0.0017006575362756848,1.39797842502594,-1.2050005197525024,-9.658587455749512
287188435000,-0.0007543779211118817,-0.0005305202212184668,7.823971100151539e-05,1.3449207544326782,-1.1555202007293701,-9.634842872619629
287195301000,-0.0005293613066896796,-0.0006344920839183033,-6.480720912804827e-05,1.3633356094360352,-1.1698541641235352,-9.636202812194824
287202300000,-0.00014111504424363375,-0.00040962506318464875,-8.792863081907853e-05,1.36708402633667,-1.1733176708221436,-9.63582992553711
287216182000,0.00020732369739562273,0.0010575634660199285,0.002211383543908596,1.3979368209838867,-1.1990575790405273,-9.66200065612793
287223104000,0.002490404061973095,0.0004204806173220277,-0.004025592468678951,1.3214993476867676,-1.1169229745864868,-9.64085865020752
287230041000,-0.0010434470605105162,0.0003780644037760794,0.001651337486691773,1.3999311923980713,-1.2068397998809814,-9.6613130569458
287237032000,-0.0009224300738424063,-0.0005641868337988853,-5.6520260841352865e-05,1.342913269996643,-1.1528328657150269,-9.633441925048828
287243977000,-0.0006329700700007379,-0.0005399321671575308,-0.00010540318908169866,1.3649405241012573,-1.1722322702407837,-9.636805534362793
287257833000,-1.9515049643814564e-05,0.0008576930267736316,0.002238738816231489,1.3957972526550293,-1.1978154182434082,-9.65693473815918
287264755000,0.002413775073364377,0.0003997781313955784,-0.0038881769869476557,1.323554277420044,-1.1205897331237793,-9.641530990600586
287271782000,-0.0010508738923817873,0.00017487810691818595,0.001697331084869802,1.397900104522705,-1.2051570415496826,-9.657955169677734
287278662000,-0.0008308638934977353,-0.0005777867627330124,8.202550088753924e-05,1.3448785543441772,-1.1557697057724,-9.63400936126709
287292536000,-5.105548189021647e-05,-0.00029289477970451117,-0.00011272338451817632,1.3694528341293335,-1.1759010553359985,-9.636053085327148
287299538000,0.00011656573042273521,0.0008970315102487803,0.00224186759442091,1.3959612846374512,-1.1975363492965698,-9.65779972076416
287306507000,0.0025026684161275625,0.00043161993380635977,-0.003900847164914012,1.323455572128296,-1.1200063228607178,-9.641641616821289
287313386000,-0.0009798579849302769,0.0002273466088809073,0.0016905402299016714,1.3982391357421875,-1.2050594091415405,-9.658628463745117
287327258000,-0.0005547164473682642,-0.0006194501183927059,-7.246984750963748e-05,1.3634854555130005,-1.1699349880218506,-9.636016845703125
287334278000,-0.00015245791291818023,-0.00039071825449354947,-8.809546125121415e-05,1.3672795295715332,-1.1735007762908936,-9.635772705078125
287341157000,3.881409065797925e-05,0.0008178920252248645,0.002252827398478985,1.396047592163086,-1.1975789070129395,-9.657000541687012
287348091000,0.002452443353831768,0.0003779908875003457,-0.003887948114424944,1.323775291442871,-1.1202853918075562,-9.64138412475586
287355119000,-0.0010271312203258276,0.00016940932255238295,0.001701826578937471,1.3981772661209106,-1.2050374746322632,-9.657855033874512
287369019000,-0.00053300557192415,-0.0006133557762950659,-6.465469778049737e-05,1.363800048828125,-1.1702078580856323,-9.634944915771484
287375876000,-0.00011494755744934082,-0.0003655535401776433,-8.829347643768415e-05,1.3674451112747192,-1.1735566854476929,-9.635383605957031
287382857000,0.000145426340168342,-0.00027558422880247235,-0.00022455713769886643,1.365264654159546,-1.1705710887908936,-9.63671875
287389801000,0.0002233936684206128,0.0010789495427161455,0.0022115125320851803,1.3979064226150513,-1.1989012956619263,-9.66241455078125
287396720000,9.00915838428773e-05,-0.00018102486501447856,-3.391812788322568e-05,1.3355646133422852,-1.1444778442382812,-9.629420280456543
287410642000,0.00012702580715995282,-0.0002773469896055758,-0.0001445208617951721,1.365315318107605,-1.1705187559127808,-9.644587516784668
287417596000,2.903543645516038e-05,0.0007540981168858707,0.0022502848878502846,1.3949048519134521,-1.1957192420959473,-9.663434028625488
287424508000,0.0023448248393833637,0.0003044240875169635,-0.003917221445590258,1.323228120803833,-1.1191152334213257,-9.64175796508789
287431421000,-0.0011671618558466434,0.00013562419917434454,0.0016752415103837848,1.3983672857284546,-1.204793930053711,-9.658452033996582
287438417000,-0.0010319151915609837,-0.0007039906340651214,-5.501489795278758e-05,1.343231439590454,-1.153268575668335,-9.63227653503418
287452376000,-0.00018907958292402327,-0.000247631425736472,-0.00012831308413296938,1.3672717809677124,-1.173972487449646,-9.634513854980469
287459202000,9.946725913323462e-05,-0.00014536526578012854,-0.0002579408173914999,1.3651832342147827,-1.170882225036621,-9.636396408081055
287466149000,0.00018093001563102007,0.0011852334719151258,0.0021840075496584177,1.397504210472107,-1.1989943981170654,-9.662423133850098
287473128000,0.0024553455878049135,0.0005049256142228842,-0.004055902361869812,1.320928692817688,-1.1167360544204712,-9.640942573547363
287487106000,-0.0009562533814460039,-0.0005426416173577309,-7.396189903374761e-05,1.342368245124817,-1.1526987552642822,-9.633453369140625
287493971000,-0.000652527844067663,-0.0005335524911060929,-0.0001129309821408242,1.364806056022644,-1.1724638938903809,-9.63698673248291
287500938000,-0.00043776718666777015,0.000813928316347301,0.002349861664697528,1.3978835344314575,-1.1997103691101074,-9.657174110412598
287507830000,0.002080000238493085,0.00021791306789964437,-0.0038372634444385767,1.3217921257019043,-1.1200346946716309,-9.638792991638184
287514816000,-0.001267857151106,-7.505761459469795e-06,0.0017204731702804565,1.39763605594635,-1.2059147357940674,-9.655733108520508
287528659000,-0.0003352244384586811,-0.0004887249087914824,-5.8221598010277376e-05,1.3662160634994507,-1.1736078262329102,-9.633065223693848
287535675000,0.00015364160935860127,-0.0001358883164357394,2.446989128657151e-05,1.3690048456192017,-1.1760681867599487,-9.63733959197998
287542577000,0.0003155938466079533,-0.0001883120567072183,-9.368885366711766e-05,1.3640437126159668,-1.169971227645874,-9.639191627502441
287549485000,0.0002957107499241829,0.0009598277974873781,0.0022839379962533712,1.3956557512283325,-1.1968469619750977,-9.663257598876953
287556478000,0.002713351510465145,0.00028378027491271496,-0.003940490540117025,1.3212783336639404,-1.118316888809204,-9.639851570129395
287570367000,-0.0007400329923257232,-0.0005565508035942912,5.485321889864281e-05,1.3449318408966064,-1.1546177864074707,-9.635783195495605
287577277000,-0.0006210952415131032,-0.0006996385636739433,-7.980147347552702e-05,1.3630117177963257,-1.1689873933792114,-9.63723087310791
287584232000,-0.00023170068743638694,-0.00043060159077867866,-9.33567644096911e-05,1.3675603866577148,-1.1734342575073242,-9.63594913482666
287591169000,-3.460003063082695e-05,0.0008192390669137239,0.0022421509493142366,1.3962712287902832,-1.1975854635238647,-9.65662956237793
287598089000,0.002361530903726816,0.000370389549061656,-0.0038861564826220274,1.3235989809036255,-1.1202243566513062,-9.641020774841309
287611993000,-0.0009021582081913948,-0.0006402748404070735,-2.950816269731149e-05,1.34356689453125,-1.153744101524353,-9.631738662719727
287619019000,-0.0005018446245230734,-0.0004834213759750128,-9.124190546572208e-05,1.3661681413650513,-1.1728955507278442,-9.634988784790039
287625878000,-8.971782517619431e-05,-0.00024757598293945193,-0.00010786973871290684,1.367330551147461,-1.1736083030700684,-9.635892868041992
287632866000,0.00018233433365821838,-9.481736924499273e-05,-0.00013411272084340453,1.3664531707763672,-1.17252516746521,-9.638936996459961
287646719000,0.0024513949174433947,0.0003621394280344248,-0.004015360958874226,1.3207142353057861,-1.1163583993911743,-9.640203475952148
287653729000,-0.001027517719194293,0.0002706720260903239,0.0016437439480796456,1.3996044397354126,-1.2064590454101562,-9.660489082336426
287660651000,-0.0008512770291417837,-0.00048480264376848936,4.887852628598921e-05,1.3451083898544312,-1.1556371450424194,-9.63548755645752
287667613000,-0.0006372286006808281,-0.0006186200771480799,-7.80139016569592e-05,1.3631852865219116,-1.1698765754699707,-9.636259078979492
287674538000,-0.0002133256639353931,-0.00038465336547233164,-9.441464499104768e-05,1.3672528266906738,-1.1736699342727661,-9.635638236999512
287688438000,0.002426841761916876,0.00037780485581606627,-0.00387434009462595,1.3237565755844116,-1.1206278800964355,-9.641355514526367
287695330000,-0.0010384912602603436,0.00016603345284238458,0.001703123445622623,1.3980076313018799,-1.2050538063049316,-9.65782356262207
287702379000,-0.0008525761659257114,-0.0006666952394880354,-2.3488588340114802e-05,1.3435449600219727,-1.1536543369293213,-9.632669448852539
287709227000,-0.0004946152912452817,-0.0005498133250512183,-8.18967746454291e-05,1.3658223152160645,-1.1725407838821411,-9.635220527648926
287716196000,-3.453817043919116e-05,-0.00019234542560297996,1.0751065929071046e-05,1.3691734075546265,-1.1758688688278198,-9.637447357177734
287730060000,0.0023909059818834066,0.00022847694344818592,-0.003963320516049862,1.3209688663482666,-1.1169577836990356,-9.638741493225098
287737035000,-0.001051345025189221,0.00024435832165181637,0.0016826692735776305,1.400391697883606,-1.207344651222229,-9.660138130187988
287743939000,-0.0008768535917624831,-0.0006572494748979807,-7.957212801557034e-06,1.3435323238372803,-1.1535085439682007,-9.63222599029541
287750941000,-0.0005163279711268842,-0.0005629021325148642,-6.551158003276214e-05,1.3655970096588135,-1.172752857208252,-9.634949684143066
287757900000,-7.484835805371404e-05,-0.00030580672319047153,-8.293430437333882e-05,1.3675713539123535,-1.1740834712982178,-9.63574504852295
287771763000,0.00021388439927250147,0.0010172347538173199,0.0022698643151670694,1.3958569765090942,-1.1970630884170532,-9.66221809387207
287778668000,8.034709026105702e-05,-0.0002635081182233989,-6.739952368661761e-06,1.3350605964660645,-1.1441322565078735,-9.628819465637207
287785650000,0.00011192983947694302,-0.0003368443576619029,-0.00010443593782838434,1.363974928855896,-1.1696381568908691,-9.64305305480957
287792579000,0.0001030061102937907,-0.0004362170584499836,-0.00022126120165921748,1.3638174533843994,-1.1685776710510254,-9.642732620239258
287799487000,5.962938303127885e-05,0.0008627676870673895,0.0022287671454250813,1.397342324256897,-1.198035478591919,-9.664518356323242
287813461000,-0.0011670892126858234,0.0002003160770982504,0.0016359541332349181,1.3997756242752075,-1.2063438892364502,-9.659560203552246
287820420000,-0.0009636280592530966,-0.0005035998183302581,5.0129168812418357e-05,1.3454761505126953,-1.1561564207077026,-9.634522438049316
287827279000,-0.0007190860924310982,-0.0006602990324608982,-0.00019377331773284823,1.3619329929351807,-1.1684081554412842,-9.632537841796875
287834296000,-0.0001287548366235569,-9.237003541784361e-05,-2.6106936275027692e-05,1.3712197542190552,-1.1786224842071533,-9.636831283569336
287841165000,-1.6219448298215866e-05,0.0010025076335296035,0.0022833235561847687,1.3945189714431763,-1.1965479850769043,-9.657524108886719
287855140000,-0.0010874159634113312,0.00031206465791910887,0.0016685957089066505,1.3999953269958496,-1.207517385482788,-9.660110473632812
287862011000,-0.0008910736651159823,-0.0006014963728375733,-1.6827660147100687e-05,1.3432731628417969,-1.1537716388702393,-9.632410049438477
287869025000,-0.0005187434144318104,-0.0005211483803577721,-7.775657286401838e-05,1.365248203277588,-1.1728357076644897,-9.635113716125488
287875963000,-7.944140816107392e-05,-0.0002893818891607225,-8.622386667411774e-05,1.3671786785125732,-1.174161672592163,-9.635810852050781
287884488000,8.59793508425355e-05,0.0009625504026189446,0.0022666361182928085,1.392377495765686,-1.194717526435852,-9.656972885131836
287897817000,-0.0003596223541535437,-0.0006176007445901632,-0.00029279571026563644,1.373026728630066,-1.1850090026855469,-9.643704414367676
287904833000,-0.00042735502938739955,0.0004722463199868798,0.0022199293598532677,1.3966145515441895,-1.1973257064819336,-9.663552284240723
287911717000,-0.0005519085680134594,-0.0007208515889942646,-2.6635898393578827e-06,1.3360015153884888,-1.1452178955078125,-9.628787994384766
287918653000,-0.0002584056928753853,-0.0004692393122240901,7.91369893704541e-06,1.3674486875534058,-1.1735204458236694,-9.638069152832031
287925591000,-4.174985224381089e-05,-0.00039764289977028966,-9.638887422624975e-05,1.36512291431427,-1.1705296039581299,-9.636537551879883
287939573000,0.0001709529897198081,0.0010839333990588784,0.002197620924562216,1.3979398012161255,-1.1985710859298706,-9.66275691986084
287946345000,0.0024119296576827765,0.00044151232577860355,-0.004046980291604996,1.3212536573410034,-1.1164124011993408,-9.640528678894043
287953405000,-0.0010922460351139307,0.0003599539049901068,0.0016152223106473684,1.399622917175293,-1.2062668800354004,-9.660511016845703
287960236000,-0.0009212475852109492,-0.0003886215854436159,2.0989595213904977e-05,1.3450754880905151,-1.1555800437927246,-9.6356201171875
287974153000,-0.00044719886500388384,0.0008882185793481767,0.002207893878221512,1.3987871408462524,-1.2013490200042725,-9.656582832336426
287981134000,0.0020196770783513784,0.00019035919103771448,-0.003949816804379225,1.3215479850769043,-1.118704080581665,-9.637743949890137
287988134000,-0.0013024521758779883,9.088288061320782e-05,0.0016667696181684732,1.399135708808899,-1.2074096202850342,-9.656944274902344
287995019000,-0.0008145773899741471,-0.0004598611849360168,9.77750460151583e-05,1.3469310998916626,-1.1586252450942993,-9.629938125610352
288001976000,-0.0004084706015419215,-0.00048104344750754535,-4.80491180496756e-05,1.3639516830444336,-1.1713685989379883,-9.632803916931152
288015820000,0.0003234744362998754,-0.00012596245505847037,-0.00010270989150740206,1.3663729429244995,-1.1727124452590942,-9.639406204223633
288022812000,0.0003272747271694243,0.0009323796257376671,0.0022668030578643084,1.3950093984603882,-1.196354627609253,-9.662278175354004
288029714000,0.002596284030005336,0.0003424037713557482,-0.00402123061940074,1.3213783502578735,-1.1168229579925537,-9.641206741333008
288036720000,-0.0009434911189600825,0.00034033111296594143,0.001659254776313901,1.4003827571868896,-1.206834316253662,-9.662036895751953
288050570000,-0.0006284406408667564,-0.0005911040352657437,-0.00010331324301660061,1.3648386001586914,-1.1717276573181152,-9.63764762878418
288057498000,-0.00023516546934843063,-0.00036396796349436045,-0.00010602580005070195,1.3672500848770142,-1.173778772354126,-9.636302947998047
288064407000,-4.000781336799264e-05,0.0008444671984761953,0.002236583735793829,1.395971417427063,-1.1976418495178223,-9.657010078430176
288071470000,0.0023639011196792126,0.0003754822537302971,-0.0038923476822674274,1.323403000831604,-1.1202701330184937,-9.641131401062012
288078296000,-0.0010944854002445936,0.00016792560927569866,0.0016939322231337428,1.3981003761291504,-1.2052209377288818,-9.657779693603516
288092204000,-0.00040237000212073326,-0.0004956525517627597,3.083010233240202e-05,1.3666490316390991,-1.173604965209961,-9.636861801147461
288099123000,-8.418704965151846e-05,-0.00040829158388078213,-7.691135397180915e-05,1.3654510974884033,-1.1711723804473877,-9.6354341506958
288106129000,9.41892503760755e-05,0.0008180420263670385,0.002258830238133669,1.396185040473938,-1.1974443197250366,-9.657493591308594
288113053000,0.002481027040630579,0.0003772670170292258,-0.003882392542436719,1.3237444162368774,-1.120061993598938,-9.6414213180542
288126927000,-0.0008162080775946379,-0.0005483010318130255,7.890553388278931e-05,1.3450493812561035,-1.1554033756256104,-9.634183883666992
288133899000,-0.000598541519138962,-0.0007139689405448735,-0.00017659607692621648,1.362138271331787,-1.16790771484375,-9.63369083404541
288140823000,-0.00010642138659022748,-0.00028271714108996093,-0.00011627533967839554,1.3695913553237915,-1.1757779121398926,-9.636167526245117
288147764000,0.00012742271064780653,-0.000206870143301785,-0.0002505898883100599,1.3651491403579712,-1.1703574657440186,-9.637216567993164
288154787000,0.00018890900537371635,0.0011314270086586475,0.002196894260123372,1.3978471755981445,-1.1988840103149414,-9.662840843200684
288168894000,6.395569653250277e-05,-0.00024333746114280075,-0.0001428676478099078,1.3637700080871582,-1.1695082187652588,-9.643464088439941
288175535000,2.617886639200151e-05,-0.00039319394272752106,-0.00025766988983377814,1.3633203506469727,-1.1682723760604858,-9.642744064331055
288182460000,-1.313688699156046e-06,0.0008955041412264109,0.002208390273153782,1.3973941802978516,-1.1983404159545898,-9.664643287658691
288189474000,0.0022745884489268064,0.0002669695531949401,-0.004030035808682442,1.3213887214660645,-1.1167817115783691,-9.640152931213379
288196376000,-0.0012095499550923705,0.0001865817466750741,0.0016312646912410855,1.3995001316070557,-1.2063850164413452,-9.6593599319458
288210255000,-0.0007143008406274021,-0.0006589597323909402,-0.00020561240671668202,1.362029790878296,-1.168577790260315,-9.632364273071289
288217207000,-0.00018413581710774451,-0.00022858308511786163,-0.00014186339103616774,1.3692188262939453,-1.1762667894363403,-9.634798049926758
288224216000,2.1859072148799896e-05,0.001066805562004447,0.002224024385213852,1.3966643810272217,-1.1986159086227417,-9.658041954040527
288231101000,0.0023838821798563004,0.0004024048103019595,-0.004008355550467968,1.321110486984253,-1.1175715923309326,-9.639524459838867
288238103000,-0.0010510783176869154,0.000287095841486007,0.0016414065612480044,1.3992066383361816,-1.206746220588684,-9.65933895111084
288251964000,-0.0005498722894117236,-0.0005678743473254144,-7.496055332012475e-05,1.363281488418579,-1.17031991481781,-9.635571479797363
288258859000,-0.00013540693907998502,-0.00036125880433246493,-9.517630678601563e-05,1.3668906688690186,-1.1735494136810303,-9.635684967041016
288265801000,7.692200597375631e-05,0.0008502668351866305,0.0022461391054093838,1.3959884643554688,-1.1978139877319336,-9.657471656799316
288272817000,0.0024804493878036737,0.0003877129638567567,-0.003889893414452672,1.3234361410140991,-1.1202473640441895,-9.641496658325195
288279719000,-0.0009894369868561625,0.00018824852304533124,0.0016967623960226774,1.3981423377990723,-1.2051334381103516,-9.658358573913574
288293626000,-0.0005232491530478001,-0.0006210797000676394,-6.152268906589597e-05,1.3637751340866089,-1.17034113407135,-9.635326385498047
288300560000,-0.00011813169112429023,-0.0003851940273307264,-8.568755583837628e-05,1.3671603202819824,-1.1734408140182495,-9.635432243347168
288307507000,0.0001446474198019132,-0.00028490935801528394,-0.00022887648083269596,1.365161657333374,-1.1705363988876343,-9.63672161102295
288314432000,0.00022059096954762936,0.001074361614882946,0.00221103779040277,1.3978115320205688,-1.1989339590072632,-9.662322998046875
288321414000,0.002491818042472005,0.00042870640754699707,-0.004034589510411024,1.3213434219360352,-1.1167091131210327,-9.64082145690918
288335361000,-0.0009405437158420682,-0.0005676187574863434,-6.406509783118963e-05,1.3425971269607544,-1.152550458908081,-9.633227348327637
288342252000,-0.000643793900962919,-0.0005382325616665184,-0.00010587282304186374,1.365060567855835,-1.172381043434143,-9.636935234069824
288349128000,-0.0003773515927605331,0.0007523676031269133,0.002251554513350129,1.3965548276901245,-1.198987364768982,-9.655861854553223
288356134000,0.0021307598799467087,0.0002284768270328641,-0.0038348096422851086,1.3234093189239502,-1.1210688352584839,-9.639588356018066
288363035000,-0.00124032748863101,1.0131974704563618e-05,0.0017231730744242668,1.3977638483047485,-1.2056928873062134,-9.655845642089844
288376932000,-0.0003117957676295191,-0.0003725065616890788,4.716370676760562e-05,1.3680074214935303,-1.175648808479309,-9.634984016418457
288383899000,4.2141269659623504e-05,-0.0003110958496108651,-6.048503564670682e-05,1.365264892578125,-1.1715222597122192,-9.63523006439209
288390833000,0.00042073961230926216,-0.0002872766926884651,-0.0001589136227266863,1.3649568557739258,-1.1720937490463257,-9.637142181396484
288397755000,0.00038903148379176855,0.0009823457803577185,0.0022595261689275503,1.3969944715499878,-1.1976938247680664,-9.66421890258789
288411657000,-0.0009535907302051783,0.00033962109591811895,0.0016591105377301574,1.4004504680633545,-1.2065784931182861,-9.66204833984375
288418673000,-0.0009029614157043397,-0.0006115360883995891,-6.250731530599296e-05,1.3427907228469849,-1.1520323753356934,-9.633523941040039
288425544000,-0.0006557637243531644,-0.0005811478476971388,-0.00010481539356987923,1.3651847839355469,-1.1719388961791992,-9.637459754943848
288432500000,-0.0002586319169495255,-0.00034677115036174655,-0.00011611848458414897,1.3673186302185059,-1.1737066507339478,-9.636113166809082
288446377000,-9.715778287500143e-05,-0.0003234265896026045,-1.238518234458752e-05,1.3359276056289673,-1.145817518234253,-9.628311157226562
288453370000,5.4995238315314054e-05,-0.00032316026045009494,-0.00010729112545959651,1.3645747900009155,-1.170672059059143,-9.640568733215332
288460283000,0.00019385945051908493,-0.00024306286650244147,-0.00013022965868003666,1.3659747838974,-1.1714881658554077,-9.642139434814453
288467393000,0.0001991203607758507,-0.0003057813155464828,-0.00026120562688447535,1.3638567924499512,-1.168467402458191,-9.641789436340332
288481164000,0.0023760851472616196,0.00036194687709212303,-0.004053942393511534,1.3211987018585205,-1.1162198781967163,-9.640671730041504
288488116000,-0.001141425222158432,0.00028182275127619505,0.0016157962381839752,1.3995552062988281,-1.2061935663223267,-9.660263061523438
288494992000,-0.0009702626848593354,-0.00046114024007692933,2.4920082069002092e-05,1.3450217247009277,-1.1557868719100952,-9.635076522827148
288501995000,-0.0007610628963448107,-0.000659572659060359,-0.00021370075410231948,1.3615998029708862,-1.1681609153747559,-9.633740425109863
288508923000,-0.00041370815597474575,0.0008244968485087156,0.0021911179646849632,1.3983012437820435,-1.2007893323898315,-9.65507984161377
288522810000,-0.0012620517518371344,0.00010139017831534147,0.0016978776548057795,1.3976695537567139,-1.2057946920394897,-9.65592098236084
288529742000,-0.0008137066615745425,-0.0004919981001876295,0.00010340270819142461,1.3462696075439453,-1.1579750776290894,-9.630101203918457
288536707000,-0.0004163054982200265,-0.0005090207559987903,-5.2365779993124306e-05,1.3638514280319214,-1.1711825132369995,-9.632823944091797
288543600000,3.8210739148780704e-05,-0.00027725292602553964,-7.926934631541371e-05,1.3671114444732666,-1.173882246017456,-9.635269165039062
288557521000,0.0003278884687460959,0.0009424109011888504,0.002261617686599493,1.3950095176696777,-1.1963422298431396,-9.662250518798828
288564445000,0.0025940958876162767,0.0003547578817233443,-0.004028478637337685,1.3213224411010742,-1.1167724132537842,-9.641209602355957
288571408000,-0.0009496898856014013,0.0003480329760350287,0.001656711450777948,1.4003033638000488,-1.2068425416946411,-9.661958694458008
288578347000,-0.0008645482012070715,-0.0005864549311809242,-5.8927420468535274e-05,1.3429192304611206,-1.1524474620819092,-9.633825302124023
288585365000,-0.0006303457776084542,-0.0005780390929430723,-0.00011109161278000101,1.3647830486297607,-1.1717208623886108,-9.637707710266113
288599140000,-4.3494743295013905e-05,0.0008501300471834838,0.0022328770719468594,1.3959908485412598,-1.1977722644805908,-9.65692138671875
288606125000,0.0023664257023483515,0.0003811292117461562,-0.003893437562510371,1.3233616352081299,-1.120348572731018,-9.641145706176758
288613046000,-0.0010889752302318811,0.00017131230561062694,0.0016932685393840075,1.398024320602417,-1.205254077911377,-9.657769203186035
288620086000,-0.0008868431323207915,-0.0006558416062034667,-3.882494638673961e-05,1.343409776687622,-1.153703212738037,-9.63205623626709
288633861000,-7.849952089600265e-05,-0.0002738150942604989,-0.00011027355503756553,1.3672734498977661,-1.1736263036727905,-9.635895729064941
288640858000,7.295818068087101e-05,0.0009833701187744737,0.002251235768198967,1.3964059352874756,-1.1980881690979004,-9.65902042388916
288647771000,0.0024144549388438463,0.00032425590325146914,-0.003992051351815462,1.3212165832519531,-1.1173055171966553,-9.639512062072754
288654796000,-0.0010556476190686226,0.00029465026455000043,0.0016698973486199975,1.399985909461975,-1.2072410583496094,-9.660264015197754
288661660000,-0.0008811303414404392,-0.0006170356646180153,-3.5839730117004365e-05,1.3432751893997192,-1.153342604637146,-9.632709503173828
288675602000,-0.00012410373892635107,-0.00033231324050575495,-0.00010430135444039479,1.3670140504837036,-1.173725962638855,-9.635714530944824
288682551000,7.493997691199183e-05,0.0008679290767759085,0.0022449621465057135,1.396036982536316,-1.1977699995040894,-9.657541275024414
288689484000,0.0024834920186549425,0.0004073941381648183,-0.0038922287058085203,1.3235493898391724,-1.1202731132507324,-9.641538619995117
288696372000,-0.0009873943636193871,0.0002016114885918796,0.0016957863699644804,1.3981947898864746,-1.2051297426223755,-9.658366203308105
288710307000,-0.0005483730346895754,-0.0006450079963542521,-6.574109283974394e-05,1.3633283376693726,-1.1698771715164185,-9.635385513305664
288717238000,-0.00012926082126796246,-0.00040024612098932266,-8.37106053950265e-05,1.3673995733261108,-1.173632025718689,-9.635418891906738
288724251000,0.00014502147678285837,-0.00029311160324141383,-0.0002277474559377879,1.3653298616409302,-1.1706271171569824,-9.636701583862305
288731095000,0.00022220192477107048,0.0010628593154251575,0.002212801016867161,1.3978768587112427,-1.1989386081695557,-9.662235260009766
288738120000,0.002488957718014717,0.0004026589449495077,-0.004025518428534269,1.3213293552398682,-1.1167218685150146,-9.640490531921387
288752016000,-0.0009074023691937327,-0.0005616584094241261,-5.686210351996124e-05,1.3429948091506958,-1.152796983718872,-9.633443832397461
288758936000,-0.0006231938605196774,-0.0005469196476042271,-9.628909901948646e-05,1.3650460243225098,-1.1722813844680786,-9.637059211730957
288765826000,-0.00021878522238694131,-0.0003420927678234875,-0.0001113465114030987,1.3670161962509155,-1.1737217903137207,-9.636110305786133
288772846000,-1.9163358956575394e-05,0.0008448796579614282,0.002238972345367074,1.395900011062622,-1.1977479457855225,-9.657008171081543
288779712000,7.78345565777272e-06,-0.00021816795924678445,0.00010700744314817712,1.3378081321716309,-1.148285984992981,-9.630162239074707
288793638000,0.0002273702557431534,-0.00027511175721883774,-0.0001366507785860449,1.3680145740509033,-1.1736146211624146,-9.642404556274414
288800556000,0.00016618147492408752,0.000887908274307847,0.0022649148013442755,1.3959052562713623,-1.1967226266860962,-9.663437843322754
288807561000,0.002423269208520651,0.0002521565183997154,-0.004014232195913792,1.3210768699645996,-1.1162137985229492,-9.63968276977539
288814430000,-0.001065150834619999,0.00020381523063406348,0.0016411582473665476,1.3997783660888672,-1.2062865495681763,-9.659738540649414
288821463000,-0.0008766828686930239,-0.0004989209701307118,4.394343341118656e-05,1.3454630374908447,-1.1557234525680542,-9.634953498840332
288835356000,-0.0001315594563493505,-0.000140142539748922,-2.5298844775534235e-05,1.3711508512496948,-1.178153157234192,-9.637384414672852
288842248000,9.307558502769098e-05,-0.00013211186160333455,-0.0001222126156790182,1.364579677581787,-1.170701503753662,-9.637609481811523
288849185000,0.00015952379908412695,0.0009808415779843926,0.0022343574091792107,1.3952299356460571,-1.1967246532440186,-9.660371780395508
288856170000,0.002493083942681551,0.00048442394472658634,-0.00392432976514101,1.32284414768219,-1.1193593740463257,-9.642138481140137
288870072000,-0.0008373692398890853,-0.0004946142435073853,5.875754504813813e-05,1.344758152961731,-1.1554352045059204,-9.635231971740723
288876950000,-0.0006261517992243171,-0.0006270322483032942,-7.713952072663233e-05,1.3629807233810425,-1.1697567701339722,-9.636016845703125
288883920000,-0.0001993230835068971,-0.00038188931648619473,-9.532936383038759e-05,1.3672088384628296,-1.1736916303634644,-9.635503768920898
288890864000,1.1007243301719427e-05,0.0008354923338629305,0.0022453051060438156,1.3959141969680786,-1.197762370109558,-9.656620025634766
288897817000,0.002433799672871828,0.0003859298303723335,-0.0038758774753659964,1.323608636856079,-1.120579719543457,-9.64135456085205
288911673000,-0.0007986893760971725,-0.0005452196346595883,8.550712664145976e-05,1.3451939821243286,-1.1559349298477173,-9.634241104125977
288918640000,-0.0005580020369961858,-0.0007051417487673461,-0.00017036052304320037,1.3619908094406128,-1.1681114435195923,-9.633273124694824
288925658000,-6.141539779491723e-05,-0.0002808519930113107,-0.00010897776519414037,1.3693506717681885,-1.1758384704589844,-9.636073112487793
288932524000,0.00010684283915907145,0.0009162002825178206,0.002240089699625969,1.395841360092163,-1.1974152326583862,-9.657816886901855
288939526000,0.0024854266084730625,0.00044779281597584486,-0.003887856611981988,1.323440432548523,-1.120113730430603,-9.641672134399414
288953429000,-0.0007990734884515405,-0.0005058705573901534,6.390605994965881e-05,1.344895601272583,-1.1554208993911743,-9.634805679321289
288960295000,-0.0005634529516100883,-0.0006066904752515256,-6.889986980240792e-05,1.3634446859359741,-1.1700313091278076,-9.635907173156738
288967218000,-0.00016095821047201753,-0.0003766890149563551,-9.7973010269925e-05,1.3671247959136963,-1.1733626127243042,-9.635733604431152
288974288000,9.362799755763263e-05,-0.00029946790891699493,-0.0002271215635119006,1.3650182485580444,-1.170578122138977,-9.636398315429688
288981128000,0.00019589741714298725,0.0010727897752076387,0.00220826780423522,1.3979105949401855,-1.1991171836853027,-9.661959648132324
288995027000,-0.0010399140883237123,0.0003980155452154577,0.001642181072384119,1.4001526832580566,-1.2070167064666748,-9.661640167236328
289002027000,-0.0009399661794304848,-0.0005708326352760196,-6.384524021996185e-05,1.342646837234497,-1.1526288986206055,-9.633238792419434
289008935000,-0.0006392409559339285,-0.0005425224080681801,-0.00010536050831433386,1.365051507949829,-1.1724079847335815,-9.63670825958252
289015847000,-0.0003643806849140674,0.0007555696065537632,0.002250819467008114,1.3966387510299683,-1.1990522146224976,-9.65584659576416
289029820000,-0.0012365876464173198,5.6765275076031685e-06,0.0017214600229635835,1.3978397846221924,-1.2057690620422363,-9.655904769897461
289036856000,-0.0008308070246130228,-0.0006748615996912122,1.4577526599168777e-05,1.344908356666565,-1.1557644605636597,-9.628508567810059
289043679000,-0.00035397015744820237,-0.00048711910494603217,-6.310289609245956e-05,1.366310954093933,-1.1734007596969604,-9.63342571258545
289050575000,0.00011008926958311349,-0.0001497986086178571,1.8998945961357094e-05,1.3689240217208862,-1.1758116483688354,-9.637219429016113
289064470000,0.000275216531008482,0.0009601889760233462,0.0022884646896272898,1.3957228660583496,-1.1968914270401,-9.662921905517578
289071444000,0.0025348933413624763,0.00028954027220606804,-0.0039900848641991615,1.3209675550460815,-1.1162790060043335,-9.640115737915039
289078366000,-0.0009773685596883297,0.00029445189284160733,0.001674831728450954,1.4003881216049194,-1.2069133520126343,-9.661449432373047
289085290000,-0.0008639912703074515,-0.0006265867850743234,-2.553001104388386e-05,1.3432815074920654,-1.152878999710083,-9.633362770080566
289092384000,-0.0005949471960775554,-0.000596160301938653,-8.008971781237051e-05,1.3650758266448975,-1.1720057725906372,-9.63697338104248
289106190000,-2.3244880139827728e-05,0.0009061119635589421,0.0022645839489996433,1.396541714668274,-1.198203682899475,-9.657903671264648
289113127000,-6.531734834425151e-05,-0.00034377252450212836,1.9631992472568527e-05,1.3355518579483032,-1.145268440246582,-9.62770938873291
289120118000,7.577796350233257e-05,-0.00036572435055859387,-8.110128692351282e-05,1.3643120527267456,-1.1705284118652344,-9.6405668258667
289126972000,0.0001787983055692166,-0.00038668839260935783,-0.00021440563432406634,1.3642863035202026,-1.169337511062622,-9.640616416931152
289140901000,0.00017560855485498905,0.0009751739562489092,0.0022532811854034662,1.3956772089004517,-1.196212649345398,-9.665213584899902
289147805000,0.00238605635240674,0.0003103790804743767,-0.004023415967822075,1.320702314376831,-1.1157972812652588,-9.640056610107422
289154837000,-0.0011239536106586456,0.00024648004909977317,0.0016323731979355216,1.3995935916900635,-1.2061229944229126,-9.66018295288086
289161707000,-0.0009555091382935643,-0.0004842465277761221,3.700246452353895e-05,1.3451097011566162,-1.155739188194275,-9.635005950927734
289168755000,-0.0007513732416555285,-0.0006750650354661047,-0.00020270211098250002,1.361655831336975,-1.168121099472046,-9.633621215820312
289182524000,3.927235957235098e-05,0.00097299600020051,0.0022607026621699333,1.3955339193344116,-1.1972333192825317,-9.658588409423828
289189565000,0.0023703526239842176,0.00032248219940811396,-0.004002217203378677,1.3209949731826782,-1.11700439453125,-9.639501571655273
289196409000,-0.0011040318058803678,0.00030632561538368464,0.0016583292745053768,1.3999673128128052,-1.2072153091430664,-9.660340309143066
289203439000,-0.0009408611804246902,-0.0006162779754959047,-3.628496779128909e-05,1.343051791191101,-1.1533434391021729,-9.63238525390625
289210321000,-0.0005567194893956184,-0.0005095574888400733,-8.811687439447269e-05,1.3655180931091309,-1.1730320453643799,-9.63487720489502
289224413000,7.332541281357408e-05,0.0009120849426835775,0.002240651287138462,1.395431399345398,-1.1974401473999023,-9.657464027404785
289231208000,0.0024657445028424263,0.00043115310836583376,-0.00385900866240263,1.3234083652496338,-1.1205642223358154,-9.641582489013672
289238242000,-0.0009820195846259594,0.0002247810480184853,0.0016983253881335258,1.397897720336914,-1.2050014734268188,-9.658580780029297
289245079000,-0.000780271424446255,-0.0005233431002125144,7.157293293857947e-05,1.3448325395584106,-1.1555322408676147,-9.63476848602295
289258974000,-0.00013675098307430744,-0.00039024726720526814,-8.28023039503023e-05,1.3671231269836426,-1.1735371351242065,-9.635661125183105
289265902000,5.5056530982255936e-05,0.0008206322090700269,0.002256011590361595,1.3958994150161743,-1.197582721710205,-9.656994819641113
289272910000,0.002462489530444145,0.00037315941881388426,-0.003876618342474103,1.3235993385314941,-1.1203317642211914,-9.64130973815918
289279812000,-0.0010013185674324632,0.00018985464703291655,0.0016995836049318314,1.3982205390930176,-1.2050870656967163,-9.658244132995605
289293733000,-0.0005462549743242562,-0.0006169059779495001,-6.4093190303538e-05,1.3634406328201294,-1.1699988842010498,-9.63499927520752
289300642000,-0.00012883750605396926,-0.00036916404496878386,-8.237306610681117e-05,1.3673158884048462,-1.1736222505569458,-9.635265350341797
289307676000,0.00013955915346741676,-0.0002715283480938524,-0.00021951495727989823,1.3651727437973022,-1.1706533432006836,-9.636591911315918
289314528000,0.0002221990143880248,0.0010884988587349653,0.0022129935678094625,1.3977794647216797,-1.1989271640777588,-9.66235065460205
289321513000,0.0024931447114795446,0.0004346446366980672,-0.004024213179945946,1.3213164806365967,-1.1167969703674316,-9.64074420928955
289335445000,-0.000915238750167191,-0.0005469544557854533,-5.337172842700966e-05,1.3428738117218018,-1.152823805809021,-9.633572578430176
289342343000,-0.0006397900287993252,-0.0005377510096877813,-0.00010542829113546759,1.3648067712783813,-1.1720855236053467,-9.63724136352539
289349235000,-0.00023856860934756696,-0.0003382113063707948,-0.00010678285616450012,1.3669490814208984,-1.173850178718567,-9.636093139648438
289356242000,-2.9897491913288832e-05,0.0008539358386769891,0.0022396231070160866,1.395818829536438,-1.1978070735931396,-9.656988143920898
289370121000,-0.0010646672453731298,0.00016871519619598985,0.0016998016508296132,1.397878885269165,-1.2051599025726318,-9.657865524291992
289377029000,-0.0008345885435119271,-0.0005719859036616981,8.134001836879179e-05,1.3449673652648926,-1.155830979347229,-9.633915901184082
289383959000,-0.0005196747952140868,-0.0006075186538510025,-5.78730323468335e-05,1.3639460802078247,-1.1706675291061401,-9.634611129760742
289391015000,-9.898352436721325e-05,-0.0003718260850291699,-8.196092676371336e-05,1.3671529293060303,-1.1735583543777466,-9.63515853881836
289404940000,0.0025141178630292416,0.0004012606805190444,-0.0038807466626167297,1.323717474937439,-1.1202874183654785,-9.641538619995117
289411768000,-0.0009689147118479013,0.00019851670367643237,0.0017043543048202991,1.3981510400772095,-1.2049826383590698,-9.658268928527832
289418752000,-0.0007643169956281781,-0.0005307435640133917,8.420391532126814e-05,1.3451991081237793,-1.1556329727172852,-9.634657859802246
289425694000,-0.0005279112956486642,-0.0006177777540870011,-6.104587373556569e-05,1.3635512590408325,-1.169927954673767,-9.635912895202637
289432629000,-0.00014071163604967296,-0.00039248671964742243,-8.426859130850062e-05,1.367167592048645,-1.1733007431030273,-9.635730743408203
289446499000,0.00020471110474318266,0.0010702768340706825,0.0022136929910629988,1.3978331089019775,-1.1988389492034912,-9.662272453308105
289453593000,0.002511826576665044,0.0005145886680111289,-0.0039085629396140575,1.3229809999465942,-1.1189912557601929,-9.641987800598145
289460405000,-0.0010071253636851907,0.0002881094696931541,0.0016817566938698292,1.3980188369750977,-1.2047380208969116,-9.65932559967041
289467320000,-0.0008941682754084468,-0.0005999656859785318,-5.397796485340223e-05,1.3429478406906128,-1.1528880596160889,-9.633662223815918
289481215000,-0.00022021058248355985,-0.00034528225660324097,-0.00010556781489867717,1.3672047853469849,-1.1735694408416748,-9.636080741882324
289488230000,-4.316458944231272e-05,0.0009248494170606136,0.0022547710686922073,1.396504282951355,-1.1982777118682861,-9.658007621765137
289495105000,-8.782240911386907e-05,-0.0003408894408494234,1.3389402738539502e-05,1.3354018926620483,-1.1452642679214478,-9.627758979797363
289502093000,0.0024758174549788237,0.00025294022634625435,-0.004080013372004032,1.3503811359405518,-1.142988681793213,-9.651934623718262
289509068000,-0.0009679555660113692,0.00024477927945554256,0.001630156533792615,1.4007961750030518,-1.207444190979004,-9.660496711730957
289523001000,-0.0005733728175982833,-0.0006464510806836188,-0.00019135285401716828,1.3618227243423462,-1.1677308082580566,-9.634028434753418
289529932000,-0.00026851106667891145,0.0008268460514955223,0.002211562357842922,1.398461937904358,-1.2004318237304688,-9.656484603881836
289536901000,-0.00021204029326327145,-0.00030148951918818057,0.00013269158080220222,1.337756872177124,-1.1485286951065063,-9.628653526306152
289543750000,-5.722249625250697e-06,-0.000402092351578176,-5.719676846638322e-05,1.363017201423645,-1.1694841384887695,-9.637491226196289
289557671000,0.0002854104386642575,-0.00032177974935621023,-0.00021983312035445124,1.3640550374984741,-1.1689618825912476,-9.64077091217041
289564571000,0.0002500549890100956,0.0009909955551847816,0.002224063267931342,1.397452473640442,-1.198075771331787,-9.66504192352295
289571546000,0.0026447779964655638,0.00035909563302993774,-0.003979592118412256,1.3217265605926514,-1.1183350086212158,-9.6402006149292
289578447000,-0.0009370982297696173,0.00025400053709745407,0.0016581687377765775,1.3990609645843506,-1.2051868438720703,-9.660359382629395
289585434000,-0.0008295497973449528,-0.00048255626461468637,3.268990622018464e-05,1.344900131225586,-1.1547046899795532,-9.635702133178711
289599265000,-0.00026571418857201934,-0.0003062081814277917,-0.00013321985898073763,1.3692071437835693,-1.1758754253387451,-9.636181831359863
289606321000,-0.00011421798262745142,0.0010619794484227896,0.0022456087172031403,1.3971400260925293,-1.1988619565963745,-9.658760070800781
289613194000,0.0022378156427294016,0.0003300135722383857,-0.003979066386818886,1.3206937313079834,-1.1170052289962769,-9.638459205627441
289620306000,-0.0011892957845702767,0.00029915221966803074,0.0016671125777065754,1.399097204208374,-1.2067347764968872,-9.659292221069336
289634153000,-0.0005056976224295795,-0.0005333231529220939,-3.7138015613891184e-05,1.3636471033096313,-1.1709964275360107,-9.634057998657227
289641220000,-5.238436278887093e-05,-0.00031140493229031563,-5.7637276768218726e-05,1.367025375366211,-1.173924207687378,-9.635387420654297
289648033000,0.00011413887841627002,0.0009324095444753766,0.0022828129585832357,1.3959815502166748,-1.1980180740356445,-9.658543586730957
289655044000,0.002464988036081195,0.0002784802345559001,-0.003961431793868542,1.3211792707443237,-1.117448329925537,-9.639300346374512
289661903000,-0.000990213011391461,0.0002746201353147626,0.0016876771114766598,1.4000318050384521,-1.2072818279266357,-9.660355567932129
289675852000,-0.0004789492813870311,-0.0005454245838336647,-5.7602715969551355e-05,1.3654749393463135,-1.1727542877197266,-9.636205673217773
289682751000,-8.809694554656744e-05,-0.0003299220115877688,-8.485171565553173e-05,1.3669136762619019,-1.173539161682129,-9.636313438415527
289689798000,5.6059216149151325e-05,0.0009282152750529349,0.0022706224117428064,1.3962726593017578,-1.197981595993042,-9.658854484558105
289696636000,0.002404026919975877,0.00028672709595412016,-0.003970177844166756,1.3213449716567993,-1.117437720298767,-9.639429092407227
289710547000,-0.0008782633231021464,-0.000623655563686043,-1.0134055628441274e-05,1.3434903621673584,-1.153640627861023,-9.632608413696289
289717462000,-0.0005269587272778153,-0.000544246518984437,-6.56106712995097e-05,1.3653217554092407,-1.1727092266082764,-9.635237693786621
289724447000,-9.693577885627747e-05,-0.00030214310390874743,-8.895265636965632e-05,1.367212176322937,-1.1739211082458496,-9.635809898376465
289731340000,5.933281499892473e-05,0.0009536264697089791,0.0022664987482130527,1.3962801694869995,-1.1980791091918945,-9.658650398254395
289738406000,0.0024162251502275467,0.000309451250359416,-0.003973471466451883,1.321365475654602,-1.117520809173584,-9.639457702636719
289752270000,-0.0008708964451216161,-0.0006238077767193317,-1.2618846085388213e-05,1.3433603048324585,-1.1535520553588867,-9.632553100585938
289759180000,-0.0005230209790170193,-0.000549286138266325,-7.302669837372378e-05,1.3653002977371216,-1.1726330518722534,-9.635510444641113
289766089000,-9.368950850330293e-05,-0.0003129176329821348,-8.22933652671054e-05,1.3673036098480225,-1.1740670204162598,-9.63593864440918
289773137000,6.684078834950924e-05,0.0009430503705516458,0.0022692338097840548,1.396299958229065,-1.198074460029602,-9.658740997314453
289779966000,0.0024160153698176146,0.0002937691751867533,-0.00397921958938241,1.3212834596633911,-1.1173537969589233,-9.639386177062988
289793858000,-0.0008590276120230556,-0.0006174377631396055,-1.1138479749206454e-05,1.343489646911621,-1.153619647026062,-9.632691383361816
289800836000,-0.000520935922395438,-0.0005531263304874301,-6.986119842622429e-05,1.3652516603469849,-1.1725540161132812,-9.635635375976562
289807819000,-0.00010100705549120903,-0.000323742424370721,-8.613171667093411e-05,1.3672124147415161,-1.173893928527832,-9.635939598083496
289814695000,0.0001483681844547391,0.00080686598084867,0.0021489369682967663,1.3944512605667114,-1.1969558000564575,-9.656494140625
289821672000,0.0025176836643368006,0.0003866360057145357,-0.003896291134878993,1.3246593475341797,-1.1209255456924438,-9.64214038848877
289835549000,-0.0007731970981694758,-0.0005345953977666795,7.944535900605842e-05,1.3452138900756836,-1.1555585861206055,-9.63477611541748
289842688000,-0.0005389662692323327,-0.0006208480335772038,-6.0545622545760125e-05,1.3635921478271484,-1.1699557304382324,-9.635857582092285
289849398000,-0.00014699576422572136,-0.0003865737817250192,-9.035189577843994e-05,1.3672161102294922,-1.1732711791992188,-9.635738372802734
289856458000,0.00010126997949555516,-0.00030357440118677914,-0.00022037549933884293,1.3651409149169922,-1.17052161693573,-9.636457443237305
289870424000,0.0024759178049862385,0.00042723154183477163,-0.004028436727821827,1.3214952945709229,-1.1168323755264282,-9.640745162963867
289877236000,-0.001042188610881567,0.00040320499101653695,0.0016452285926789045,1.4002164602279663,-1.2069700956344604,-9.661564826965332
289884131000,-0.0009420115384273231,-0.0005638048751279712,-5.8840632846113294e-05,1.3427460193634033,-1.1526514291763306,-9.633186340332031
289891117000,-0.0006422063452191651,-0.000537065090611577,-0.00010012665006797761,1.3651201725006104,-1.1724084615707397,-9.63680648803711
289898025000,-0.0003706966817844659,0.000756695750169456,0.002254191553220153,1.3966591358184814,-1.1990036964416504,-9.655885696411133
289911950000,-2.616550773382187e-05,-0.0004703262238763273,-3.408806514926255e-05,1.363043189048767,-1.1698323488235474,-9.636031150817871
289918939000,0.0002725389786064625,-0.00029580199043266475,-6.617946201004088e-05,1.3667148351669312,-1.1728242635726929,-9.63933277130127
289925897000,0.00038534411578439176,-0.00022429705131798983,-9.829801274463534e-05,1.3656688928604126,-1.1711578369140625,-9.641900062561035
289932754000,0.0002913903445005417,0.0009218364721164107,0.002286821836605668,1.395650863647461,-1.1963129043579102,-9.664460182189941
289946664000,-0.0010195294162258506,0.0003110023098997772,0.0016637378139421344,1.4003565311431885,-1.2066922187805176,-9.661389350891113
289953699000,-0.000929506728425622,-0.0006048369687050581,-4.289735807105899e-05,1.343037724494934,-1.152591586112976,-9.63310432434082
289960570000,-0.000649356166832149,-0.0005479563842527568,-9.59275639615953e-05,1.365099310874939,-1.1721283197402954,-9.636503219604492
289967511000,-0.00023774895817041397,-0.0003049172228202224,-0.00010852250852622092,1.3671598434448242,-1.1738381385803223,-9.635621070861816
289974500000,-4.968780558556318e-05,0.0009792647324502468,0.002246897667646408,1.3964085578918457,-1.1983524560928345,-9.657777786254883
289988488000,-0.0011195590486750007,0.0003115824656561017,0.0016711341449990869,1.3997646570205688,-1.2073408365249634,-9.659887313842773
289995276000,-0.0009118017624132335,-0.00058997847372666,-1.8100166926160455e-05,1.3433361053466797,-1.153841495513916,-9.63233470916748
290002238000,-0.0005254973075352609,-0.0005008736625313759,-7.238426042022184e-05,1.3653433322906494,-1.173034429550171,-9.634872436523438
290009251000,-8.376975893042982e-05,-0.00027201834018342197,-8.824661199469119e-05,1.3670662641525269,-1.1741043329238892,-9.635708808898926
290023125000,0.0024321747478097677,0.0003098587039858103,-0.003976272419095039,1.321133017539978,-1.117459774017334,-9.639521598815918
290030047000,-0.0010226999875158072,0.000295709993224591,0.0016780473524704576,1.3999968767166138,-1.2073479890823364,-9.660505294799805
290036984000,-0.0008555898093618453,-0.0006263533723540604,-1.2620883353520185e-05,1.3431626558303833,-1.1534627676010132,-9.632671356201172
290043913000,-0.0005166749469935894,-0.0005609975778497756,-7.164571434259415e-05,1.365153431892395,-1.1725722551345825,-9.63568115234375
290057950000,0.00020121029228903353,-0.0001535381597932428,-0.00010700450366130099,1.3664987087249756,-1.1727827787399292,-9.638812065124512
290064849000,0.00022852630354464054,0.0009347317973151803,0.00225585768930614,1.3950697183609009,-1.1964658498764038,-9.661149024963379
290071757000,0.002558235777541995,0.0004595051286742091,-0.003907348029315472,1.3230969905853271,-1.1193493604660034,-9.642587661743164
290078649000,-0.0009788146708160639,0.00024032860528677702,0.0016895788721740246,1.397948980331421,-1.2046465873718262,-9.659428596496582
290085627000,-0.0008236410794779658,-0.0005174528923816979,6.30679278401658e-05,1.3447195291519165,-1.1551233530044556,-9.635412216186523
290099526000,-0.00022468637325800955,-0.0004005617811344564,-9.215628961101174e-05,1.3672459125518799,-1.173574686050415,-9.635586738586426
290106550000,-1.7156708054244518e-05,0.0008275725413113832,0.0022462427150458097,1.3959888219833374,-1.1977167129516602,-9.656516075134277
290113395000,0.0023914698977023363,0.00036872667260468006,-0.0038753992412239313,1.323469638824463,-1.1204249858856201,-9.641043663024902
290120327000,-0.0010592471808195114,0.0001799498568288982,0.0016997483326122165,1.3981177806854248,-1.2052032947540283,-9.657912254333496
290134175000,-0.0005700663896277547,-0.000690029002726078,-0.00016689219046384096,1.3621431589126587,-1.1683385372161865,-9.633017539978027
290141226000,-7.02710822224617e-05,-0.0002674620773177594,-0.00011298208846710622,1.3692773580551147,-1.1757866144180298,-9.635961532592773
290148061000,0.0001005250378511846,0.0009242525557056069,0.0022422794718295336,1.3959254026412964,-1.1975922584533691,-9.65780258178711
290155099000,0.0024875227827578783,0.00045637390576303005,-0.003900940762832761,1.3233495950698853,-1.1200129985809326,-9.641653060913086
290161961000,-0.0009957579895853996,0.0002443380653858185,0.0016931325662881136,1.3981223106384277,-1.205101728439331,-9.658591270446777
290168873000,-0.0007978669018484652,-0.0005039357347413898,6.678720819763839e-05,1.3449159860610962,-1.1554926633834839,-9.634822845458984
290182781000,-0.00016324932221323252,-0.0003843003651127219,-8.588730997871608e-05,1.367124080657959,-1.1734875440597534,-9.635751724243164
290189801000,0.00010724538879003376,-0.0002917932579293847,-0.00022233532217796892,1.3651527166366577,-1.170676350593567,-9.636669158935547
290196680000,0.0001999258529394865,0.0010741960722953081,0.0022102089133113623,1.3978468179702759,-1.1990137100219727,-9.66223430633545
290203706000,0.00246400386095047,0.0004030901473015547,-0.004019887652248144,1.3212718963623047,-1.1168935298919678,-9.640487670898438
290210597000,-0.0010440245969220996,0.00037511554546654224,0.001650050631724298,1.400084376335144,-1.207025170326233,-9.661480903625488
290224550000,-0.0006259413785301149,-0.000540349050424993,-9.708262223284692e-05,1.365005373954773,-1.17231023311615,-9.636887550354004
290231431000,-0.00022311569773592055,-0.00033890956547111273,-0.00010638634557835758,1.3669183254241943,-1.1737736463546753,-9.635950088500977
290238649000,-1.7905724234879017e-05,0.0008527025929652154,0.0022407323122024536,1.3958313465118408,-1.197778582572937,-9.656986236572266
290245350000,0.0024106178898364305,0.0003917213762179017,-0.0038813333958387375,1.323569655418396,-1.1205974817276,-9.641473770141602
290259301000,-0.0008147864718921483,-0.0005569288041442633,8.1758109445218e-05,1.3452068567276,-1.1559398174285889,-9.634356498718262
290266157000,-0.0005343232187442482,-0.0006271587917581201,-5.4810123401694e-05,1.3636195659637451,-1.1703581809997559,-9.634581565856934
290273146000,-0.00010608500451780856,-0.00037778500700369477,-8.648421498946846e-05,1.3672621250152588,-1.1735621690750122,-9.635150909423828
290280022000,9.723595576360822e-05,0.0008460775716230273,0.002253908896818757,1.3961588144302368,-1.1977159976959229,-9.657179832458496
290287013000,0.0024988208897411823,0.0003960048779845238,-0.0038797585293650627,1.323677659034729,-1.12026846408844,-9.641410827636719
290300840000,-0.0007702632574364543,-0.0005300883203744888,8.403102401643991e-05,1.3452270030975342,-1.155663013458252,-9.634603500366211
290307897000,-0.0005292215500958264,-0.0006143511272966862,-6.15726166870445e-05,1.3635907173156738,-1.1699625253677368,-9.635833740234375
290314757000,-0.00014129217015579343,-0.0003901295131072402,-8.459933451376855e-05,1.3671748638153076,-1.1733062267303467,-9.635692596435547
290321787000,0.00012522311590146273,-0.0002901594270952046,-0.00021442462457343936,1.365360975265503,-1.1707137823104858,-9.636768341064453
290335573000,0.0026341734919697046,0.0004060128703713417,-0.003973221872001886,1.3217436075210571,-1.1187752485275269,-9.640115737915039
290342575000,-0.0009122517658397555,0.0002850840683095157,0.001659533940255642,1.3991581201553345,-1.205470323562622,-9.660534858703613
290349458000,-0.000798140128608793,-0.0004786358622368425,3.300281969131902e-05,1.3448551893234253,-1.154731273651123,-9.635812759399414
290356497000,-0.0007005200604908168,-0.0007436361047439277,-0.00020311051048338413,1.361378788948059,-1.1670277118682861,-9.635735511779785
290370424000,-8.455995703116059e-05,0.0008882429683580995,0.0022922304924577475,1.3950468301773071,-1.1966450214385986,-9.657426834106445
290377342000,-0.00012593614519573748,-0.000377332151401788,2.0039904484292492e-05,1.3351951837539673,-1.1449460983276367,-9.627412796020508
290384229000,3.5284901969134808e-06,-0.00047513237223029137,-0.00019545157556422055,1.3628990650177002,-1.1685179471969604,-9.63854694366455
290391196000,0.0002292961726197973,-0.00021279111388139427,-0.00013406234211288393,1.368094563484192,-1.1737884283065796,-9.642176628112793
290398112000,0.00027733106981031597,-0.00016681800480000675,-0.00014281259791459888,1.3656524419784546,-1.1708351373672485,-9.64333724975586
290412020000,0.002417926210910082,0.00032923975959420204,-0.004044236149638891,1.3213642835617065,-1.116471767425537,-9.640989303588867
290418906000,-0.001113029196858406,0.0002646137145347893,0.0016213868511840701,1.3996951580047607,-1.2060279846191406,-9.660468101501465
290425926000,-0.0009662911179475486,-0.0004722046433016658,1.8882583390222862e-05,1.345028281211853,-1.1554509401321411,-9.63517951965332
290432851000,-0.0007779038278385997,-0.0006655111792497337,-0.00022078657639212906,1.3616725206375122,-1.1679694652557373,-9.633878707885742
290446737000,-7.242232095450163e-05,0.0010446968954056501,0.002221604809165001,1.396489143371582,-1.1985223293304443,-9.657672882080078
290453760000,0.0023037241771817207,0.0003881867742165923,-0.004011054523289204,1.3211387395858765,-1.1176812648773193,-9.639473915100098
290460594000,-0.0011203809408470988,0.0002724488149397075,0.0016377575229853392,1.3991754055023193,-1.2068448066711426,-9.659090995788574
290467558000,-0.0008495962247252464,-0.00044916634215041995,6.136185402283445e-05,1.3454231023788452,-1.1566717624664307,-9.634455680847168
290481476000,-8.854502812027931e-05,-0.0002619040315039456,-0.00011781707871705294,1.3691740036010742,-1.1761091947555542,-9.6360445022583
290488463000,0.00010188791202381253,0.000920928898267448,0.002233942272141576,1.3957968950271606,-1.197724461555481,-9.657917022705078
290495299000,0.0024928823113441467,0.000435997499153018,-0.0039017393719404936,1.323190450668335,-1.120111107826233,-9.64168643951416
290502233000,-0.0009782824199646711,0.00022906559752300382,0.0016872365958988667,1.398118257522583,-1.2051633596420288,-9.658821105957031
290509209000,-0.0007870607078075409,-0.0005301244091242552,6.68040884193033e-05,1.3447961807250977,-1.1554826498031616,-9.634798049926758
290523111000,-0.00010474526789039373,-0.00032328697852790356,-0.00011453836486907676,1.3695138692855835,-1.1759721040725708,-9.636322021484375
290530037000,7.849064422771335e-05,0.0008892579935491085,0.0022346291225403547,1.3961102962493896,-1.1976265907287598,-9.657787322998047
290537071000,0.002461168449372053,0.00042587972711771727,-0.003911136649549007,1.3233935832977295,-1.1199299097061157,-9.641672134399414
290543933000,-0.00103254453279078,0.0002073646173812449,0.0016885962104424834,1.398083209991455,-1.2050268650054932,-9.658304214477539
290550840000,-0.0007020497578196228,-0.0006396135431714356,3.254761395510286e-06,1.3437625169754028,-1.155421257019043,-9.632695198059082
290564745000,-0.00011902520782314241,-0.0003799042897298932,-0.00011451903992565349,1.3673266172409058,-1.1731294393539429,-9.636198997497559
290571783000,9.87570674624294e-05,-0.00029298418667167425,-0.00025779844145290554,1.365080714225769,-1.1700948476791382,-9.636923789978027
290578649000,0.00017831812147051096,0.0010898907203227282,0.0021928437054157257,1.3982009887695312,-1.199075698852539,-9.662450790405273
290585584000,0.0024315654300153255,0.0004228672478348017,-0.004043973982334137,1.3212140798568726,-1.1165800094604492,-9.64059829711914
290599500000,-0.0009050002554431558,-0.00044803990749642253,2.1951611415715888e-05,1.3448160886764526,-1.1555150747299194,-9.635311126708984
290606515000,-0.0007310159271582961,-0.0006935857236385345,-0.00021064090833533555,1.3614654541015625,-1.1679108142852783,-9.63459587097168
290613422000,-0.00021444237791001797,-0.0002803725656121969,-0.00013436659355647862,1.3694344758987427,-1.1763207912445068,-9.636273384094238
290620372000,-3.7585385143756866e-05,0.0009788158349692822,0.002235672902315855,1.3964972496032715,-1.198366403579712,-9.658260345458984
290627272000,-8.621194865554571e-05,-0.00030436093220487237,-5.956309905741364e-06,1.3352279663085938,-1.145190954208374,-9.627885818481445
290641224000,0.00028153182938694954,-0.00029810279374942183,-0.00014267725055105984,1.3668665885925293,-1.1722434759140015,-9.643335342407227
290648138000,0.00019110454013571143,0.0008647736394777894,0.0022641352843493223,1.3959914445877075,-1.1965382099151611,-9.664358139038086
290655259000,0.00241442141123116,0.00021866685710847378,-0.004020615015178919,1.320996642112732,-1.1159323453903198,-9.63978385925293
290661984000,-0.001079803449101746,0.0001864810474216938,0.0016344879986718297,1.3999361991882324,-1.2062302827835083,-9.660053253173828
290668933000,-0.0009153803111985326,-0.0005244367057457566,3.6726341932080686e-05,1.345358967781067,-1.1556675434112549,-9.634830474853516
290682862000,-0.0001645628799451515,-0.00014338846085593104,-3.8093428884167224e-05,1.3710548877716064,-1.1782312393188477,-9.636887550354004
290689823000,-4.000961780548096e-05,0.0009818923426792026,0.002276180312037468,1.394863486289978,-1.1966946125030518,-9.657398223876953
290696734000,0.0023190598003566265,0.00030837522353976965,-0.003983252216130495,1.3207955360412598,-1.1172360181808472,-9.638691902160645
290703721000,-0.0010943999513983727,0.00022055924637243152,0.0016553676687180996,1.3993810415267944,-1.2068172693252563,-9.658817291259766
290717610000,-0.0005238427547737956,-0.0005517431418411434,-6.567718082806095e-05,1.3635464906692505,-1.1704826354980469,-9.634857177734375
290724535000,-0.00010675459634512663,-0.0003372449427843094,-8.711738337296993e-05,1.3669682741165161,-1.1735684871673584,-9.635432243347168
290731467000,0.00016081877402029932,-0.00025935887242667377,-0.00022717961110174656,1.3649678230285645,-1.1706230640411377,-9.636985778808594
290738458000,0.00023265730123966932,0.0010744109749794006,0.0022149693686515093,1.3975727558135986,-1.1989305019378662,-9.662569999694824
290745367000,0.0026767197996377945,0.00042168458458036184,-0.003981509245932102,1.3216922283172607,-1.1188361644744873,-9.640541076660156
290759240000,-0.0007754333782941103,-0.00048599758883938193,3.376548920641653e-05,1.3446600437164307,-1.1546802520751953,-9.63598346710205
290766146000,-0.0006914890836924314,-0.0007634797366335988,-0.00020057236542925239,1.3611515760421753,-1.166938304901123,-9.635988235473633
290773148000,-0.0001859688782133162,-0.00024554654373787344,-2.0526929802144878e-05,1.3709720373153687,-1.1777992248535156,-9.638184547424316
290780040000,-7.894029840826988e-05,0.0008768760599195957,0.002293356228619814,1.3948688507080078,-1.196539282798767,-9.657515525817871
290793983000,-0.00112850998993963,0.00015418289694935083,0.001660627662204206,1.3995622396469116,-1.206764817237854,-9.658720970153809
290800911000,-0.0008420143276453018,-0.0005155823891982436,7.998746878001839e-05,1.3458633422851562,-1.1567447185516357,-9.63302993774414
290807899000,-0.0005155616090632975,-0.0005452956538647413,-6.613055302295834e-05,1.3639216423034668,-1.1706790924072266,-9.634166717529297
290814764000,-9.603862417861819e-05,-0.0003191202995367348,-8.913011697586626e-05,1.3670802116394043,-1.1735632419586182,-9.635125160217285
290821971000,0.00010055303573608398,0.0008803749806247652,0.0022541095968335867,1.3959335088729858,-1.1976876258850098,-9.657334327697754
290835601000,-0.0009584911167621613,0.00023018947103992105,0.0017001384403556585,1.3980506658554077,-1.2049262523651123,-9.658512115478516
290842595000,-0.0007672790670767426,-0.0005171865923330188,7.678578549530357e-05,1.3449875116348267,-1.1554733514785767,-9.634760856628418
290849486000,-0.0005427041905932128,-0.0006233620224520564,-6.053328252164647e-05,1.3634270429611206,-1.1699098348617554,-9.63615894317627
290856485000,-0.00015172339044511318,-0.0004007286624982953,-8.325105591211468e-05,1.3671424388885498,-1.1733444929122925,-9.635797500610352
290870414000,0.0002002287656068802,0.00106032844632864,0.00221390463411808,1.3979761600494385,-1.1990517377853394,-9.661974906921387
290877309000,0.002532865619286895,0.0005323246587067842,-0.0039087925106287,1.3232909440994263,-1.1192576885223389,-9.642354011535645
290884200000,-0.00100017711520195,0.0002905116998590529,0.0016835832502692938,1.397849440574646,-1.2046213150024414,-9.659244537353516
290891205000,-0.0008820304647088051,-0.0005951585480943322,-4.6622320951428264e-05,1.3430097103118896,-1.1530035734176636,-9.633752822875977
290905138000,-0.00022065677330829203,-0.00035283740726299584,-0.00010459618351887912,1.3672068119049072,-1.1735683679580688,-9.636064529418945
290911996000,-4.108122084289789e-05,0.0009227619739249349,0.0022547731641680002,1.3965340852737427,-1.1982917785644531,-9.658004760742188
290918940000,-8.688576053828001e-05,-0.0003373907529748976,7.413218554574996e-06,1.3354039192199707,-1.1451966762542725,-9.627853393554688
290925961000,0.0024679971393197775,0.0002493106294423342,-0.004079717211425304,1.3503239154815674,-1.1429661512374878,-9.651849746704102
290932861000,-0.0009699435322545469,0.00025039928732439876,0.0016264922451227903,1.4008586406707764,-1.2074674367904663,-9.660606384277344
290946771000,-0.0004449454718269408,-0.000545671908184886,-0.00010706247121561319,1.364551067352295,-1.170666217803955,-9.636614799499512
290953698000,-0.00023845670511946082,0.000774477026425302,0.0022544243838638067,1.396958351135254,-1.1985150575637817,-9.656898498535156
290960642000,-0.00024774621124379337,-0.0004549496516119689,2.6331017579650506e-05,1.335851788520813,-1.1456979513168335,-9.62713623046875
290967541000,-4.597142105922103e-05,-0.0004913826123811305,-0.0001931403239723295,1.3633184432983398,-1.1690531969070435,-9.636457443237305
290981437000,0.0003219062346033752,-9.938728180713952e-05,-0.00015522910689469427,1.3660688400268555,-1.171114444732666,-9.643218040466309
290988483000,0.00020130962366238236,0.0009249366703443229,0.002240019617602229,1.3948150873184204,-1.1955233812332153,-9.663827896118164
290995391000,0.002433161251246929,0.00034605327527970076,-0.004054233431816101,1.3212237358093262,-1.1163488626480103,-9.64088249206543
291002268000,-0.0010905128438025713,0.0002851687604561448,0.001618202542886138,1.399817705154419,-1.2061692476272583,-9.66061019897461
291016167000,-0.0007734710234217346,-0.0006749983294866979,-0.00021941887098364532,1.3615119457244873,-1.1678409576416016,-9.634315490722656
291023270000,-0.00026382581563666463,-0.0002518759574741125,-0.00014696238213218749,1.3692775964736938,-1.1761958599090576,-9.635684967041016
291030072000,-4.9286638386547565e-05,0.0009592506103217602,0.002207671059295535,1.3959945440292358,-1.1979360580444336,-9.656798362731934
291037065000,0.002377977129071951,0.0004911412252113223,-0.003911325242370367,1.3233975172042847,-1.1205675601959229,-9.6415376663208
291044022000,-0.00108635937795043,0.0002520017442293465,0.0016779960133135319,1.3977718353271484,-1.205210566520691,-9.658051490783691
291057907000,-0.000617762329056859,-0.0006996642332524061,-0.00019070933922193944,1.3615612983703613,-1.1679915189743042,-9.63318920135498
291064774000,-4.7366120270453393e-05,-0.0001642271236050874,-1.0745925465016626e-05,1.3711395263671875,-1.1783907413482666,-9.637526512145996
291071835000,5.4102158173918724e-05,0.0009230606956407428,0.0023019746877253056,1.3945673704147339,-1.1964949369430542,-9.658120155334473
291078720000,0.002414862858131528,0.00025960663333535194,-0.003966010175645351,1.320946455001831,-1.1172244548797607,-9.6390380859375
291085616000,-0.0010375895071774721,0.0002498215762898326,0.0016822869656607509,1.4000179767608643,-1.2072665691375732,-9.660100936889648
291099495000,-0.0005020634853281081,-0.0005603631725534797,-6.941588071640581e-05,1.3654824495315552,-1.172766923904419,-9.635287284851074
291106551000,-7.606061990372837e-05,-0.0003136492450721562,-9.317271178588271e-05,1.3672903776168823,-1.1738771200180054,-9.635919570922852
291113410000,7.424084469676018e-05,0.0009442556765861809,0.002265391405671835,1.3963558673858643,-1.1980493068695068,-9.658761978149414
291120391000,0.0024233609437942505,0.0002990768989548087,-0.00397775461897254,1.321358323097229,-1.1174052953720093,-9.639398574829102
291134230000,-0.0008665811037644744,-0.000619374040979892,-2.426689025014639e-05,1.3434126377105713,-1.1534286737442017,-9.632650375366211
291141225000,-0.0005323049263097346,-0.0005532357608899474,-7.832475967006758e-05,1.365286111831665,-1.1725610494613647,-9.63551139831543
291148105000,-9.994310676120222e-05,-0.0003076141292694956,-9.41915568546392e-05,1.3673871755599976,-1.1740187406539917,-9.635994911193848
291155171000,0.0001424127840436995,0.0008121905848383904,0.002147394698113203,1.3943850994110107,-1.1969513893127441,-9.656434059143066
291162001000,0.002538271714001894,0.00041459035128355026,-0.003889590734615922,1.3249847888946533,-1.1212769746780396,-9.642477035522461
291176147000,-0.0007745064795017242,-0.0005309473490342498,7.347777864197269e-05,1.345227599143982,-1.1555063724517822,-9.634858131408691
291186836000,-0.0007543512037955225,-0.000453477434348315,-0.0006956919678486884,1.3598778247833252,-1.1571789979934692,-9.639583587646484
291207655000,-0.0016134977340698242,-5.39097236469388e-05,-0.00032257760176435113,1.3097257614135742,-1.1208422183990479,-9.608970642089844
291213028000,0.00235039577819407,0.0011836679186671972,-0.004318848717957735,1.3165251016616821,-1.116073489189148,-9.640892028808594
291232694000,0.002448483370244503,0.0015140280593186617,-0.001063637901097536,1.3843352794647217,-1.1785829067230225,-9.67547607421875
291232694000,0.002448483370244503,0.0015140280593186617,-0.001063637901097536,1.3843352794647217,-1.1785829067230225,-9.67547607421875
291247737000,0.003960035741329193,0.0020729373209178448,-0.0010727506596595049,1.413017988204956,-1.198814034461975,-9.658934593200684
291257299000,0.00038295635022222996,-0.002177370013669133,-0.0048511135391891,1.2536505460739136,-1.0407054424285889,-9.600958824157715
