sim_time_ns,gyro_x,gyro_y,gyro_z,accel_x,accel_y,accel_z
774550423000,8.724835788598284e-05,4.0126604289980605e-05,-8.130908099701628e-06,-3.0001487731933594,-0.03701281547546387,-9.339715003967285
774557584000,-1.582838740432635e-05,-2.755158675427083e-05,5.237631285126554e-06,-3.00014066696167,-0.03525125980377197,-9.339865684509277
774571239000,-2.755415698629804e-05,-4.713814632850699e-06,5.065627192379907e-06,-2.999997615814209,-0.036083102226257324,-9.340055465698242
774578261000,8.630611409898847e-05,3.935522181564011e-05,-8.169590728357434e-06,-3.0001468658447266,-0.03700602054595947,-9.3397216796875
774585185000,-1.5854120647418313e-05,-2.7015417799702846e-05,5.275127477943897e-06,-3.0001344680786133,-0.035260796546936035,-9.33987045288086
774592173000,-2.9638185878866352e-05,-1.6928996046772227e-05,4.843170245294459e-06,-2.9999873638153076,-0.03600144386291504,-9.340097427368164
774605992000,8.75014957273379e-05,4.0606526454212144e-05,-8.104511834972072e-06,-3.0001449584960938,-0.03702056407928467,-9.339714050292969
774612953000,-1.6267811588477343e-05,-2.708002102735918e-05,5.251746188150719e-06,-3.0001392364501953,-0.03524672985076904,-9.339868545532227
774619846000,-2.551796569605358e-05,-1.6119265637826174e-05,5.128655175212771e-06,-2.999992847442627,-0.03601861000061035,-9.340100288391113
774626847000,-2.786551704048179e-05,-4.315208570915274e-06,5.085843895358266e-06,-2.999998092651367,-0.03607499599456787,-9.340057373046875
774633787000,8.756712486501783e-05,4.024967347504571e-05,-8.108559086394962e-06,-3.000145673751831,-0.03702056407928467,-9.339712142944336
774647635000,-2.5452351110288873e-05,-1.6476131349918433e-05,5.124609288031934e-06,-2.9999921321868896,-0.03601789474487305,-9.34010124206543
774654565000,-2.7953814424108714e-05,-4.808051016880199e-06,5.084807980892947e-06,-2.9999985694885254,-0.03607368469238281,-9.340058326721191
774661568000,8.760472701396793e-05,3.9862665289547294e-05,-8.103490472421981e-06,-3.000145435333252,-0.037021756172180176,-9.339713096618652
774668457000,-1.6198060620808974e-05,-2.7779584343079478e-05,5.247696208243724e-06,-3.0001392364501953,-0.035246968269348145,-9.339868545532227
774675492000,-2.5545499738655053e-05,-1.6566666090511717e-05,5.1235774662927724e-06,-2.9999918937683105,-0.036017417907714844,-9.34010124206543
774689328000,8.731218986213207e-05,3.991874473285861e-05,-8.134954441629816e-06,-3.0001487731933594,-0.03701317310333252,-9.339714050292969
774696331000,-1.5765466741868295e-05,-2.7684945962391794e-05,5.2335872169351205e-06,-3.0001399517059326,-0.03525137901306152,-9.339865684509277
774703182000,-2.6135172447538935e-05,-1.6827121726237237e-05,5.032271474192385e-06,-2.999990701675415,-0.0360109806060791,-9.34010124206543
774710272000,-2.758744449238293e-05,-4.68441066914238e-06,5.06055539517547e-06,-2.999997615814209,-0.03608202934265137,-9.340056419372559
774724073000,-1.5919795259833336e-05,-2.7031113859266043e-05,5.264981609798269e-06,-3.0001349449157715,-0.03526020050048828,-9.339871406555176
774730998000,-2.9671296942979097e-05,-1.6914493244257756e-05,4.8380979933426715e-06,-2.9999868869781494,-0.03600108623504639,-9.34009838104248
774737947000,-2.7898206099052913e-05,-3.957951776101254e-06,5.094962489238242e-06,-3.0000016689300537,-0.03608989715576172,-9.340063095092773
774744920000,8.756556053413078e-05,4.075632386957295e-05,-8.09436369308969e-06,-3.000145435333252,-0.037020206451416016,-9.339714050292969
774751803000,-1.551828427182045e-05,-2.6713318220572546e-05,5.259991667116992e-06,-3.000138759613037,-0.03525233268737793,-9.339864730834961
774765723000,-2.7928077543037944e-05,-4.211649866192602e-06,5.089887054054998e-06,-2.9999983310699463,-0.036081790924072266,-9.340056419372559
774772704000,8.753382280701771e-05,4.027907925774343e-05,-8.113630428852048e-06,-3.000145673751831,-0.03702092170715332,-9.339710235595703
774779670000,-1.6257321476587094e-05,-2.7571668397285976e-05,5.265927939035464e-06,-3.000141143798828,-0.0352473258972168,-9.339866638183594
774786509000,-2.5452171030337922e-05,-1.6491028873133473e-05,5.124608833284583e-06,-2.9999921321868896,-0.03601956367492676,-9.340100288391113
774800406000,8.756757597438991e-05,3.983240821980871e-05,-8.122750841721427e-06,-3.0001449584960938,-0.037020325660705566,-9.339713096618652
774807429000,-1.6103645975817926e-05,-2.7793346816906705e-05,5.248725756246131e-06,-3.000138521194458,-0.035247802734375,-9.339869499206543
774814317000,-2.542709444242064e-05,-1.659504050621763e-05,5.101305305288406e-06,-2.9999916553497314,-0.03601837158203125,-9.340100288391113
774821229000,-2.7981470339000225e-05,-4.8679939936846495e-06,5.0939215725520626e-06,-2.9999985694885254,-0.03607320785522461,-9.34006118774414
774835179000,-1.588261511642486e-05,-2.7760874218074605e-05,5.255858013697434e-06,-3.000140428543091,-0.03524637222290039,-9.339868545532227
774842182000,-2.6074769266415387e-05,-1.6751881048548967e-05,5.028229679737706e-06,-2.9999897480010986,-0.03601276874542236,-9.34010124206543
774849037000,-2.7555595806916244e-05,-4.594612619257532e-06,5.06562901136931e-06,-2.999997138977051,-0.03608262538909912,-9.340057373046875
774856019000,8.625214104540646e-05,3.950358586735092e-05,-8.137174518196844e-06,-3.0001471042633057,-0.03700590133666992,-9.339722633361816
774869852000,-2.96380057989154e-05,-1.6943897207966074e-05,4.843169790547108e-06,-2.9999876022338867,-0.03600203990936279,-9.340097427368164
774876874000,-2.786455661407672e-05,-4.017152605229057e-06,5.1000338316953275e-06,-3.000002145767212,-0.036089420318603516,-9.340063095092773
774883760000,8.752352732699364e-05,4.075581819051877e-05,-8.127812179736793e-06,-3.0001447200775146,-0.037020206451416016,-9.339715003967285
774890769000,-1.549026637803763e-05,-2.6683175747166388e-05,5.250877620710526e-06,-3.000138759613037,-0.03525221347808838,-9.339865684509277
774897648000,-2.6585814339341596e-05,-1.626627636142075e-05,5.112250619276892e-06,-2.9999938011169434,-0.036004066467285156,-9.340106964111328
774911585000,8.756406896281987e-05,4.0502975025447085e-05,-8.108556357910857e-06,-3.000145435333252,-0.03702044486999512,-9.339713096618652
774918460000,-1.6137411876115948e-05,-2.7346686692908406e-05,5.257845714368159e-06,-3.0001401901245117,-0.035248756408691406,-9.339865684509277
774925507000,-2.5449411623412743e-05,-1.6341975424438715e-05,5.138797860126942e-06,-2.9999923706054688,-0.0360184907913208,-9.340099334716797
774932404000,-2.779516580631025e-05,-4.68691905552987e-06,5.0959847612830345e-06,-2.9999990463256836,-0.03607475757598877,-9.340057373046875
774946281000,-1.6202257029362954e-05,-2.7809437597170472e-05,5.233508545643417e-06,-3.0001392364501953,-0.03524744510650635,-9.33986759185791
774953185000,-2.5421100872335956e-05,-1.6714186131139286e-05,5.115491148899309e-06,-2.9999923706054688,-0.03601861000061035,-9.340100288391113
774960275000,-2.7918727937503718e-05,-4.986452040611766e-06,5.089877504360629e-06,-2.999998092651367,-0.036073923110961914,-9.340058326721191
774967098000,8.791085565462708e-05,3.9896163798402995e-05,-8.123699444695376e-06,-3.0001449584960938,-0.03702402114868164,-9.339712142944336
774981022000,-2.9628115953528322e-05,-1.776340104697738e-05,4.84316024085274e-06,-2.9999871253967285,-0.035997629165649414,-9.34010124206543
774987913000,-2.7883223083335906e-05,-4.822099072043784e-06,5.109139692649478e-06,-3.0000016689300537,-0.03608834743499756,-9.34006404876709
774994913000,8.753035217523575e-05,4.018961772089824e-05,-8.127817636705004e-06,-3.000143051147461,-0.03702068328857422,-9.339715957641602
775001813000,-1.62070518854307e-05,-2.7034579034079798e-05,5.24770439369604e-06,-3.000136375427246,-0.03524792194366455,-9.339872360229492
775008796000,-2.6553603674983606e-05,-1.620627699594479e-05,5.11732287122868e-06,-2.9999918937683105,-0.03600871562957764,-9.340106964111328
775022720000,8.750041160965338e-05,4.069593342137523e-05,-8.10451092547737e-06,-3.0001442432403564,-0.037018775939941406,-9.339712142944336
775029658000,-9.297897122451104e-06,-2.315112215001136e-05,4.390716640045866e-06,-3.0001087188720703,-0.0353468656539917,-9.339783668518066
775036549000,-3.2028197892941535e-05,-2.05045744223753e-05,4.967331733496394e-06,-3.0000386238098145,-0.035863518714904785,-9.340187072753906
775043566000,-3.259518416598439e-05,-6.3542793213855475e-06,5.000867986382218e-06,-2.999987840652466,-0.03608977794647217,-9.340068817138672
775050447000,9.557443991070613e-05,4.2253774154232815e-05,-7.761564120301045e-06,-3.00014591217041,-0.03710818290710449,-9.339683532714844
775064408000,-2.6110301405424252e-05,-1.851077649916988e-05,5.0464386731619015e-06,-2.9999871253967285,-0.03601336479187012,-9.340106964111328
775071273000,-2.7517213311512023e-05,-5.801230145152658e-06,5.042312295699958e-06,-2.9999942779541016,-0.03608226776123047,-9.340060234069824
775078338000,8.622818859294057e-05,3.875818583765067e-05,-8.142254955600947e-06,-3.0001440048217773,-0.03700602054595947,-9.339726448059082
775085193000,-1.5484989489777945e-05,-2.6742725822259672e-05,5.265063009574078e-06,-3.0001306533813477,-0.0352628231048584,-9.339876174926758
775092205000,-2.9669259674847126e-05,-1.6705840607755817e-05,4.852287929679733e-06,-2.999986410140991,-0.03599834442138672,-9.34010124206543
775106028000,8.751866698730737e-05,4.1158124076901004e-05,-8.127806722768582e-06,-3.000143527984619,-0.03702139854431152,-9.339714050292969
775113049000,-1.5612091374350712e-05,-2.6371701096650213e-05,5.273152510198997e-06,-3.0001401901245117,-0.035251736640930176,-9.339865684509277
775119896000,-2.2488304239232093e-05,-1.3817561011819635e-05,4.803954652743414e-06,-2.9999804496765137,-0.03605461120605469,-9.340069770812988
775126890000,-3.296057911938988e-05,-5.717889507650398e-06,4.959265879733721e-06,-3.0000133514404297,-0.035993218421936035,-9.340106010437012
775133843000,9.541823965264484e-05,4.2684045183705166e-05,-7.744358299532905e-06,-3.0001487731933594,-0.03710830211639404,-9.339682579040527
775147709000,-3.391548671061173e-05,-2.0512437913566828e-05,4.744068064610474e-06,-2.999980926513672,-0.03597378730773926,-9.34012508392334
775154615000,-2.7732003218261525e-05,-4.462621291168034e-06,5.106131538923364e-06,-2.9999914169311523,-0.036127567291259766,-9.340062141418457
775161660000,8.750131382839754e-05,4.062142761540599e-05,-8.104511834972072e-06,-3.0001420974731445,-0.0370182991027832,-9.339719772338867
775168505000,-1.5401188647956587e-05,-2.587738163128961e-05,5.266103926260257e-06,-3.000133991241455,-0.0352557897567749,-9.33987045288086
775182392000,-3.211904186173342e-05,-5.543812221731059e-06,4.9543527893547434e-06,-2.999999523162842,-0.03599655628204346,-9.340087890625
775189385000,8.749494736548513e-05,4.077037738170475e-05,-8.118695404846221e-06,-3.0001444816589355,-0.03705275058746338,-9.339705467224121
775196403000,-1.5452122170245275e-05,-2.7114885597256944e-05,5.255944415694103e-06,-3.0001420974731445,-0.035254716873168945,-9.339860916137695
775203227000,-2.6472031095181592e-05,-1.6667258023517206e-05,5.061599495093105e-06,-2.9999923706054688,-0.03600418567657471,-9.340106010437012
775217112000,8.747306128498167e-05,4.0233633626485243e-05,-8.10958954389207e-06,-3.000145435333252,-0.03701984882354736,-9.339714050292969
775224094000,-1.538009018986486e-05,-2.7248133847024292e-05,5.28027430846123e-06,-3.000138759613037,-0.035256385803222656,-9.339862823486328
775231072000,-2.6550067559583113e-05,-1.687683106865734e-05,5.103127477923408e-06,-2.9999938011169434,-0.03600168228149414,-9.340107917785645
775237959000,-2.793047679006122e-05,-4.390505637275055e-06,5.0756975724652875e-06,-2.9999959468841553,-0.03608357906341553,-9.340057373046875
775244968000,8.750124834477901e-05,4.024887311970815e-05,-8.118701771309134e-06,-3.000145673751831,-0.037020087242126465,-9.339714050292969
775251849000,-1.616650479263626e-05,-2.7287429475109093e-05,5.266961125016678e-06,-3.000138521194458,-0.035248517990112305,-9.339868545532227
775265750000,-2.719419717323035e-05,-3.6812143662245944e-06,5.055572273704456e-06,-2.9999935626983643,-0.03608214855194092,-9.340055465698242
775272668000,8.727512613404542e-05,4.0261049434775487e-05,-8.14001941762399e-06,-3.0001487731933594,-0.03701174259185791,-9.339716911315918
775279663000,-1.5885492757661268e-05,-2.7522473828867078e-05,5.25586119692889e-06,-3.000140905380249,-0.03525197505950928,-9.339863777160645
775286554000,-2.616605706862174e-05,-1.6618861991446465e-05,5.0413882490829565e-06,-2.999990701675415,-0.036011576652526855,-9.340102195739746
775300463000,8.618009451311082e-05,3.963683411711827e-05,-8.161505320458673e-06,-3.0001473426818848,-0.03700613975524902,-9.3397216796875
775307468000,-1.5767145669087768e-05,-2.679083263501525e-05,5.261972546577454e-06,-3.0001344680786133,-0.03526139259338379,-9.33986759185791
775314369000,-2.6435200197738595e-05,-1.6234651411650702e-05,5.0950511649716645e-06,-2.9999940395355225,-0.03600668907165527,-9.340106010437012
775321274000,-2.716522431001067e-05,-3.353015927132219e-06,5.060649073129753e-06,-2.999993085861206,-0.03609037399291992,-9.34005355834961
775328316000,8.735628944123164e-05,4.058987178723328e-05,-8.167361556843389e-06,-3.0001487731933594,-0.03701305389404297,-9.339715003967285
775342171000,-2.653440969879739e-05,-1.6578596842009574e-05,5.065642653789837e-06,-2.9999918937683105,-0.036010146141052246,-9.340105056762695
775349156000,-2.7598292945185676e-05,-4.162962795817293e-06,5.0463745537854265e-06,-2.999995231628418,-0.036087751388549805,-9.340052604675293
775356222000,8.725015504751354e-05,3.9977596316020936e-05,-8.130909918691032e-06,-3.0001487731933594,-0.03701448440551758,-9.339715003967285
775363037000,-1.6234764188993722e-05,-2.7467078325571492e-05,5.242626684776042e-06,-3.000138282775879,-0.03524959087371826,-9.339868545532227
775376894000,-2.7255317036178894e-05,-3.696852218126878e-06,5.059614522906486e-06,-2.999992847442627,-0.036090970039367676,-9.340054512023926
775383817000,8.728387183509767e-05,4.029095725854859e-05,-8.111646820907481e-06,-3.0001487731933594,-0.037012577056884766,-9.339715003967285
775390771000,-1.579341733304318e-05,-2.734253394010011e-05,5.256893018668052e-06,-3.000140428543091,-0.03525197505950928,-9.339866638183594
775397725000,-2.6134752260986716e-05,-1.6484365914948285e-05,5.0464627747714985e-06,-2.999990463256836,-0.03601109981536865,-9.340100288391113
775411631000,8.628085925010964e-05,3.94741291529499e-05,-8.14628856460331e-06,-3.000148296356201,-0.03700721263885498,-9.339719772338867
775418515000,-1.579389936523512e-05,-2.6925274141831324e-05,5.271085683489218e-06,-3.0001349449157715,-0.03526020050048828,-9.33986759185791
775425638000,-2.6532010451774113e-05,-1.6399742889916524e-05,5.079831680632196e-06,-2.999993085861206,-0.036006808280944824,-9.340106010437012
775432417000,-2.719179610721767e-05,-3.5023567761527374e-06,5.069762210041517e-06,-2.999993324279785,-0.036090850830078125,-9.34005355834961
775439381000,8.7394131696783e-05,4.0560531488154083e-05,-8.148103006533347e-06,-3.000148057937622,-0.037012696266174316,-9.339715003967285
775453285000,-2.655168646015227e-05,-1.674273153184913e-05,5.103129296912812e-06,-2.999993324279785,-0.03600919246673584,-9.340106010437012
775460268000,-2.750136991380714e-05,-4.3853251554537565e-06,5.047401828051079e-06,-2.9999947547912598,-0.03608834743499756,-9.34005069732666
775467172000,8.721885387785733e-05,3.984309660154395e-05,-8.135983989632223e-06,-3.0001487731933594,-0.03701424598693848,-9.339716911315918
775474127000,-1.608288766874466e-05,-2.7539756047190167e-05,5.225427230470814e-06,-3.0001378059387207,-0.035250186920166016,-9.33986759185791
775487973000,-2.7217291062697768e-05,-3.741102773346938e-06,5.078873527963879e-06,-2.9999921321868896,-0.03609144687652588,-9.340054512023926
775495006000,8.730751869734377e-05,4.030614218208939e-05,-8.134949894156307e-06,-3.000148057937622,-0.03701162338256836,-9.339716911315918
775501850000,-1.5353694834630005e-05,-2.7083890017820522e-05,5.271162081044167e-06,-3.0001392364501953,-0.035256385803222656,-9.339862823486328
775508881000,-2.6068530132761225e-05,-1.6513369700987823e-05,5.056606823927723e-06,-2.9999914169311523,-0.03600764274597168,-9.340103149414062
775515794000,-2.7585581847233698e-05,-4.4608532334677875e-06,5.074745331512531e-06,-2.999998092651367,-0.036081671714782715,-9.340055465698242
775529778000,-1.5891248040134087e-05,-2.7045669412473217e-05,5.255867108644452e-06,-3.000136375427246,-0.03525996208190918,-9.33986759185791
775536565000,-2.661658618308138e-05,-1.644546864554286e-05,5.1071756388409995e-06,-2.999992609024048,-0.03600633144378662,-9.340106964111328
775543597000,-2.7315116312820464e-05,-3.4442364267306402e-06,5.077847163192928e-06,-2.999993324279785,-0.03609025478363037,-9.340054512023926
775550458000,8.72800883371383e-05,4.060386345372535e-05,-8.111643182928674e-06,-3.000148296356201,-0.03701329231262207,-9.339715957641602
775564457000,-2.6495661586523056e-05,-1.6682448404026218e-05,5.084900749352528e-06,-2.9999938011169434,-0.036007046699523926,-9.340104103088379
775571312000,-2.7188019885215908e-05,-3.815259333350696e-06,5.069758117315359e-06,-2.999993324279785,-0.036090731620788574,-9.340052604675293
775578297000,8.733786671655253e-05,4.0142589568858966e-05,-8.144064850057475e-06,-3.0001485347747803,-0.03701305389404297,-9.339714050292969
775585199000,-1.5818375686649233e-05,-2.7625974325928837e-05,5.266004336590413e-06,-3.0001413822174072,-0.03525102138519287,-9.339865684509277
775592230000,-2.615317134768702e-05,-1.6931653590290807e-05,5.069759026810061e-06,-2.999990940093994,-0.03601086139678955,-9.340100288391113
775606080000,8.624517067801207e-05,3.932468098355457e-05,-8.165550752892159e-06,-3.0001468658447266,-0.03700590133666992,-9.3397216796875
775613097000,-1.1287271263427101e-05,-2.4069264327408746e-05,4.595037808030611e-06,-3.0001096725463867,-0.03533017635345459,-9.339810371398926
775619987000,-3.847209518426098e-05,-2.0895276975352317e-05,4.675358923122985e-06,-3.000020980834961,-0.03585338592529297,-9.340188980102539
775626975000,-2.6508012524573132e-05,-2.853312253137119e-06,5.176290414965479e-06,-2.9999890327453613,-0.03617584705352783,-9.340039253234863
775640805000,-1.5980829630279914e-05,-3.0161319955368526e-05,5.249728019407485e-06,-3.0001535415649414,-0.03520321846008301,-9.339849472045898
775647829000,-2.617837890284136e-05,-1.8705326510826126e-05,5.022104687668616e-06,-2.9999876022338867,-0.036011695861816406,-9.340106964111328
775654727000,-2.733733163040597e-05,-5.843769031343982e-06,5.015997885493562e-06,-2.999992847442627,-0.036084532737731934,-9.340059280395508
775661650000,8.585864270571619e-05,3.8142738048918545e-05,-8.146384061546996e-06,-3.000148057937622,-0.03700101375579834,-9.339726448059082
775675587000,-3.47065542882774e-05,-1.7437223505112343e-05,4.73586351290578e-06,-2.999983310699463,-0.03596663475036621,-9.340126991271973
775682447000,-2.741977004916407e-05,-1.4485976862488315e-06,5.119401976116933e-06,-2.999992609024048,-0.03613567352294922,-9.34005355834961
775689358000,9.46709478739649e-05,4.410564724821597e-05,-7.775886842864566e-06,-3.0001535415649414,-0.03705739974975586,-9.339696884155273
775696335000,-1.5305904526030645e-05,-2.8692755222436972e-05,5.262028025754262e-06,-3.000154495239258,-0.035214781761169434,-9.339841842651367
775703287000,-2.6506417270866223e-05,-1.8142996850656345e-05,5.093998424854362e-06,-2.999992847442627,-0.03600203990936279,-9.340109825134277
775717171000,8.734649600228295e-05,3.942738112527877e-05,-8.144073035509791e-06,-3.0001473426818848,-0.03701186180114746,-9.33971881866455
775724202000,-1.5971751054166816e-05,-2.7806652724393643e-05,5.269015673547983e-06,-3.0001378059387207,-0.03525042533874512,-9.33987045288086
775731046000,-2.9659189749509096e-05,-1.7540243788971566e-05,4.852278379985364e-06,-2.9999866485595703,-0.03600108623504639,-9.34010124206543
775738026000,-2.788933488773182e-05,-4.315497790230438e-06,5.1091460591123905e-06,-2.999999523162842,-0.03608965873718262,-9.340065956115723
775744982000,8.755295857554302e-05,4.0666767745278776e-05,-8.136927135637961e-06,-3.000143051147461,-0.03702139854431152,-9.339715003967285
775758889000,-2.6560317564872093e-05,-1.6027526726247743e-05,5.1031383918598294e-06,-2.9999918937683105,-0.03600919246673584,-9.340106010437012
775765806000,-2.7962381864199415e-05,-3.7202898965915665e-06,5.099007921671728e-06,-2.9999964237213135,-0.03608298301696777,-9.340057373046875
775772716000,8.743767102714628e-05,4.081438964931294e-05,-8.100465493043885e-06,-3.00014591217041,-0.03702056407928467,-9.339712142944336
775779703000,-1.548229374748189e-05,-2.696622505027335e-05,5.265060735837324e-06,-3.000141143798828,-0.035254716873168945,-9.339860916137695
775793636000,-2.750154999375809e-05,-4.370425813249312e-06,5.047401828051079e-06,-2.9999961853027344,-0.036078810691833496,-9.34005355834961
775800502000,8.727962267585099e-05,3.988854950875975e-05,-8.1400248745922e-06,-3.000148296356201,-0.03701496124267578,-9.339716911315918
775807477000,-1.6192961993510835e-05,-2.7824227800010704e-05,5.261882051854627e-06,-3.0001401901245117,-0.035247802734375,-9.339868545532227
775814411000,-2.6520621759118512e-05,-1.6965890608844347e-05,5.09401252202224e-06,-2.9999918937683105,-0.036009907722473145,-9.340105056762695
775821325000,-2.719078111113049e-05,-3.964316420024261e-06,5.055569545220351e-06,-2.999992609024048,-0.03609108924865723,-9.340054512023926
775835221000,-1.5914940377115272e-05,-2.743341428868007e-05,5.264977517072111e-06,-3.0001397132873535,-0.03525137901306152,-9.339865684509277
775842250000,-2.6134392101084813e-05,-1.6514166418346576e-05,5.046462320024148e-06,-2.9999899864196777,-0.036012887954711914,-9.34010124206543
775849137000,-2.7595777282840572e-05,-4.371564500615932e-06,5.046372280048672e-06,-2.999997615814209,-0.03608226776123047,-9.340055465698242
775856063000,8.623959729447961e-05,3.978658060077578e-05,-8.165545295923948e-06,-3.00014591217041,-0.037006497383117676,-9.339722633361816
775863030000,-1.5566318324999884e-05,-2.6594680093694478e-05,5.212358701101039e-06,-3.0001344680786133,-0.035265326499938965,-9.339862823486328
775876980000,-2.7543708711164072e-05,-3.983475835411809e-06,5.028146915719844e-06,-2.9999947547912598,-0.03608822822570801,-9.340051651000977
775883827000,8.733643335290253e-05,4.0261787944473326e-05,-8.144064850057475e-06,-3.000148296356201,-0.03701496124267578,-9.339715957641602
775890812000,-1.619763861526735e-05,-2.7436824893811718e-05,5.261887054075487e-06,-3.0001399517059326,-0.03524887561798096,-9.339868545532227
775897718000,-2.655168646015227e-05,-1.674273153184913e-05,5.103129296912812e-06,-2.999993085861206,-0.036008596420288086,-9.340106010437012
775911643000,8.721328049432486e-05,4.030499985674396e-05,-8.135978532664012e-06,-3.0001487731933594,-0.037010788917541504,-9.339717864990234
775918567000,-1.611180414329283e-05,-2.7495396352605894e-05,5.234542186371982e-06,-3.00014066696167,-0.035250067710876465,-9.339864730834961
775925607000,-2.6522060579736717e-05,-1.6846690414240584e-05,5.094013431516942e-06,-2.999993324279785,-0.036008596420288086,-9.340106010437012
775932436000,-2.7221489290241152e-05,-3.7709578464273363e-06,5.064686320110923e-06,-2.9999918937683105,-0.036090850830078125,-9.340054512023926
775939385000,8.731369598535821e-05,4.01721044909209e-05,-8.120765414787456e-06,-3.0001492500305176,-0.03701281547546387,-9.339715957641602
775953268000,-2.6131874619750306e-05,-1.672276630415581e-05,5.046460046287393e-06,-2.999990463256836,-0.03601193428039551,-9.34010124206543
775960397000,-2.7556854547583498e-05,-4.490311766858213e-06,5.065630375611363e-06,-2.999997138977051,-0.03608345985412598,-9.340055465698242
775967205000,8.62799643073231e-05,3.954863495891914e-05,-8.146287655108608e-06,-3.0001473426818848,-0.037006378173828125,-9.339720726013184
775974163000,-1.5888128473307006e-05,-2.6926412829197943e-05,5.270056135486811e-06,-3.0001349449157715,-0.03525996208190918,-9.339869499206543
775987983000,-2.7286929253023118e-05,-3.4289951145183295e-06,5.0687326620391104e-06,-2.999992847442627,-0.03609013557434082,-9.340054512023926
775994973000,8.727698150323704e-05,4.048460323247127e-05,-8.125834938255139e-06,-3.0001487731933594,-0.03701210021972656,-9.339715957641602
776001909000,-1.5831623386475258e-05,-2.728338586166501e-05,5.23763446835801e-06,-3.000141143798828,-0.03525280952453613,-9.339861869812012
776008908000,-2.606709131214302e-05,-1.6632569895591587e-05,5.05660545968567e-06,-2.9999914169311523,-0.0360112190246582,-9.340100288391113
776022711000,8.621519373264164e-05,3.945844218833372e-05,-8.15643579699099e-06,-3.0001473426818848,-0.03700602054595947,-9.339720726013184
776029702000,-1.5919435099931434e-05,-2.7060914362664334e-05,5.2649807003035676e-06,-3.0001354217529297,-0.03525948524475098,-9.339868545532227
776036598000,-2.652949478942901e-05,-1.660834277572576e-05,5.079829861642793e-06,-2.9999935626983643,-0.03600740432739258,-9.340104103088379
776043647000,-2.7256575776846148e-05,-3.5925513657275587e-06,5.059615887148539e-06,-2.9999923706054688,-0.03609049320220947,-9.340054512023926
776050515000,8.730169793125242e-05,4.041039210278541e-05,-8.149136192514561e-06,-3.0001487731933594,-0.03701317310333252,-9.339715957641602
776064401000,-2.6190236894763075e-05,-1.6589350707363337e-05,5.064690412837081e-06,-2.999990940093994,-0.036011457443237305,-9.34010124206543
776071320000,-2.7624148060567677e-05,-4.371906470623799e-06,5.0554867812024895e-06,-2.999997138977051,-0.036083102226257324,-9.340055465698242
776078306000,8.62190208863467e-05,3.95180941268336e-05,-8.142248589138035e-06,-3.0001487731933594,-0.037006258964538574,-9.3397216796875
776085266000,-1.582172990310937e-05,-2.6970319595420733e-05,5.280199729895685e-06,-3.0001347064971924,-0.03526043891906738,-9.339866638183594
776092174000,-2.6554382202448323e-05,-1.6519230484846048e-05,5.103132025396917e-06,-2.9999942779541016,-0.03600645065307617,-9.340106010437012
776106038000,8.724494546186179e-05,4.040970088681206e-05,-8.130904461722821e-06,-3.0001494884490967,-0.037011027336120605,-9.339716911315918
776113037000,-1.6172743926290423e-05,-2.752593718469143e-05,5.238583980826661e-06,-3.000140905380249,-0.03524923324584961,-9.339864730834961
776119936000,-2.6492425604374148e-05,-1.695065111562144e-05,5.084897566121072e-06,-2.9999942779541016,-0.03600931167602539,-9.340103149414062
776127097000,-2.7162046535522677e-05,-3.993774953414686e-06,5.0464545893191826e-06,-2.9999923706054688,-0.03609132766723633,-9.34005355834961
776140860000,-2.2297987015917897e-05,-3.530431422404945e-05,5.07626828039065e-06,-3.0002198219299316,-0.03507733345031738,-9.339938163757324
776147837000,-3.166399983456358e-05,-2.1796671717311256e-05,4.9805512389866635e-06,-2.999979019165039,-0.03601670265197754,-9.340126991271973
776154748000,-2.788628262351267e-05,-5.701369445887394e-06,5.06656760990154e-06,-2.9999823570251465,-0.03612780570983887,-9.340052604675293
776161742000,8.753669681027532e-05,4.00406752305571e-05,-8.113632247841451e-06,-3.0001392364501953,-0.037020087242126465,-9.339723587036133
776175559000,-2.54501082963543e-05,-1.46878310260945e-05,5.1013275879085995e-06,-2.9999918937683105,-0.03601276874542236,-9.340104103088379
776182526000,-2.7878040782525204e-05,-2.899645551224239e-06,5.100047474115854e-06,-2.999997854232788,-0.03607439994812012,-9.340058326721191
776189477000,8.811979205347598e-05,4.1686955228215083e-05,-8.08817185316002e-06,-3.0001468658447266,-0.03702342510223389,-9.339710235595703
776196393000,-1.5159239410422742e-05,-2.7200761905987747e-05,5.287407930154586e-06,-3.0001463890075684,-0.03525185585021973,-9.339853286743164
776203299000,-2.47921980189858e-05,-1.6512871297891252e-05,5.131819307280239e-06,-2.9999942779541016,-0.03601562976837158,-9.340097427368164
776217232000,8.753190195420757e-05,3.9682960050413385e-05,-8.142013030010276e-06,-3.0001437664031982,-0.03702116012573242,-9.339713096618652
776224197000,-1.613351923879236e-05,-2.8047044906998053e-05,5.243650775810238e-06,-3.0001401901245117,-0.03524792194366455,-9.339868545532227
776231121000,-2.6452966267243028e-05,-1.711410004645586e-05,5.1041552069364116e-06,-2.9999921321868896,-0.036009788513183594,-9.340106010437012
776238035000,-2.794889769575093e-05,-4.837795131606981e-06,5.098994733998552e-06,-2.9999961853027344,-0.036081910133361816,-9.340059280395508
776245013000,8.793581946520135e-05,4.017960236524232e-05,-8.132810762617737e-06,-3.0001444816589355,-0.037024617195129395,-9.339712142944336
776258900000,-2.548162046878133e-05,-1.6401969332946464e-05,5.133724698680453e-06,-2.9999916553497314,-0.0360182523727417,-9.34010124206543
776265830000,-2.7130916350870393e-05,-3.844374077743851e-06,5.051528660260374e-06,-2.999993324279785,-0.03608238697052002,-9.340056419372559
776272731000,8.734044240554795e-05,4.0306535083800554e-05,-8.129876732709818e-06,-3.000147819519043,-0.037012577056884766,-9.339716911315918
776279753000,-1.617184534552507e-05,-2.760043935268186e-05,5.238583071331959e-06,-3.000140905380249,-0.035247802734375,-9.339865684509277
776286633000,-2.6460402295924723e-05,-1.687575422693044e-05,5.089971637062263e-06,-2.999992609024048,-0.03600955009460449,-9.340105056762695
776300595000,8.733553113415837e-05,4.033628647448495e-05,-8.144063940562773e-06,-3.000147819519043,-0.037012338638305664,-9.339715957641602
776307503000,-1.5832343706279062e-05,-2.7223784854868427e-05,5.237634923105361e-06,-3.0001401901245117,-0.03525114059448242,-9.339865684509277
776314456000,-2.6162222638959065e-05,-1.6559206414967775e-05,5.055576821177965e-06,-2.9999918937683105,-0.036011576652526855,-9.340100288391113
776321413000,-2.750502790149767e-05,-4.459881893126294e-06,5.033214165450772e-06,-2.9999985694885254,-0.03608286380767822,-9.340054512023926
776335252000,-1.5958003132254817e-05,-2.697196396184154e-05,5.2457235142355785e-06,-3.000136137008667,-0.03525853157043457,-9.33987045288086
776342250000,-2.6504176275921054e-05,-1.6354697436327115e-05,5.07071763422573e-06,-2.999992847442627,-0.03600764274597168,-9.340105056762695
776349212000,-2.7230540581513196e-05,-3.3985106711043045e-06,5.050503204984125e-06,-2.999992609024048,-0.03609120845794678,-9.340054512023926
776356077000,8.73611934366636e-05,4.056012039654888e-05,-8.153174348990433e-06,-3.000148296356201,-0.03701293468475342,-9.339715003967285
776363073000,-1.619727845536545e-05,-2.746662539721001e-05,5.261886599328136e-06,-3.0001425743103027,-0.035247206687927246,-9.339865684509277
776376954000,-2.7254598535364494e-05,-3.7564532249234617e-06,5.059613613411784e-06,-2.9999918937683105,-0.03609156608581543,-9.340052604675293
776383904000,8.731369598535821e-05,4.01721044909209e-05,-8.120765414787456e-06,-3.0001487731933594,-0.03701210021972656,-9.339716911315918
776390868000,-1.579509989824146e-05,-2.758099253696855e-05,5.242703082330991e-06,-3.00014066696167,-0.03525269031524658,-9.339862823486328
776397782000,-2.599907929834444e-05,-1.6810576198622584e-05,5.066748144599842e-06,-2.9999914169311523,-0.03601217269897461,-9.340099334716797
776411685000,8.624026668258011e-05,3.935443237423897e-05,-8.179737960745115e-06,-3.0001463890075684,-0.03700685501098633,-9.3397216796875
776418583000,-1.5886505934759043e-05,-2.7060516003984958e-05,5.270054316497408e-06,-3.0001349449157715,-0.035259366035461426,-9.33987045288086
776425571000,-2.6174755475949496e-05,-1.6276211681542918e-05,5.027205588703509e-06,-2.999990940093994,-0.03601181507110596,-9.340100288391113
776432489000,-2.759811468422413e-05,-4.177862138021737e-06,5.0463745537854265e-06,-2.9999983310699463,-0.03608298301696777,-9.34005355834961
776439417000,8.614904072601348e-05,3.9859998651081696e-05,-8.1523876360734e-06,-3.0001468658447266,-0.03700661659240723,-9.339720726013184
776453325000,-2.652745388331823e-05,-1.6399688320234418e-05,5.094018888485152e-06,-2.9999938011169434,-0.03600740432739258,-9.340104103088379
776460566000,-2.731313907133881e-05,-3.6081364669371396e-06,5.077845798950875e-06,-2.9999935626983643,-0.03609001636505127,-9.34005355834961
776467244000,8.718820754438639e-05,4.040901694679633e-05,-8.112676368909888e-06,-3.0001485347747803,-0.03701198101043701,-9.339715957641602
776474189000,-1.5830904885660857e-05,-2.7342986868461594e-05,5.237633558863308e-06,-3.000140905380249,-0.035254836082458496,-9.339862823486328
776488056000,-3.255637057009153e-05,-6.756174116162583e-06,4.911698852083646e-06,-3.000028133392334,-0.03597116470336914,-9.340124130249023
776495111000,8.216690912377089e-05,3.8351525290636346e-05,-8.229115337599069e-06,-3.000143527984619,-0.03701162338256836,-9.339728355407715
776502040000,-1.5561450709355995e-05,-2.473184395057615e-05,5.297503776091617e-06,-3.000122547149658,-0.03529763221740723,-9.339868545532227
776508977000,-2.4932112864917144e-05,-1.4323930372484028e-05,5.168304141989211e-06,-2.9999964237213135,-0.03601658344268799,-9.340095520019531
776522755000,8.755481394473463e-05,4.089031062903814e-05,-8.122738108795602e-06,-3.000148057937622,-0.03702080249786377,-9.339707374572754
776529748000,-1.5123068806133233e-05,-2.7468566258903593e-05,5.2924774536222685e-06,-3.0001449584960938,-0.0352550745010376,-9.33985710144043
776536660000,-2.4806060537230223e-05,-1.696010622254107e-05,5.169303221919108e-06,-2.9999947547912598,-0.03601527214050293,-9.340097427368164
776543696000,-2.7878968467121013e-05,-5.552259608521126e-06,5.094943844596855e-06,-2.9999990463256836,-0.03606998920440674,-9.340058326721191
776550662000,8.847174467518926e-05,3.96048890252132e-05,-8.24013477540575e-06,-3.00014066696167,-0.037035226821899414,-9.339701652526855
776564706000,-2.642123945406638e-05,-1.77694146259455e-05,5.080846676719375e-06,-2.999990701675415,-0.03600883483886719,-9.340107917785645
776571513000,-2.7213758585276082e-05,-4.411660484038293e-06,5.0646790441533085e-06,-2.999990940093994,-0.03609049320220947,-9.340057373046875
776585338000,-1.6259480617009103e-05,-2.739286719588563e-05,5.265929758024868e-06,-3.0001378059387207,-0.03524649143218994,-9.339875221252441
776592550000,-2.6558762328932062e-05,-1.6534186215722002e-05,5.088944817543961e-06,-2.999992609024048,-0.03601086139678955,-9.340103149414062
776599354000,-1.2652864825213328e-05,6.612904144276399e-06,2.9587297376565402e-06,-2.999911308288574,-0.03631401062011719,-9.339872360229492
776606206000,6.817189569119364e-05,3.073154221056029e-05,-8.618799256510101e-06,-3.000253677368164,-0.03663671016693115,-9.339932441711426
776620144000,-2.7908383344765753e-05,-1.3361393939703703e-05,5.197172868065536e-06,-2.9999947547912598,-0.03602778911590576,-9.340092658996582
776627225000,-2.0819672499783337e-05,7.769613148411736e-07,5.479320861923043e-06,-3.0000014305114746,-0.03613865375518799,-9.340030670166016
776634020000,-1.351199080090737e-05,1.2012021215923596e-05,5.74930618313374e-06,-3.0000171661376953,-0.03614068031311035,-9.34000015258789
776641027000,8.665809582453221e-05,5.010401218896732e-05,-9.983202289731707e-06,-3.000115156173706,-0.03693103790283203,-9.339635848999023
776647903000,-1.0382222171756439e-05,-2.690468681976199e-05,5.551722551899729e-06,-3.000244140625,-0.03528404235839844,-9.339838027954102
776661851000,-2.8454092898755334e-05,-8.614159014541656e-06,5.041093118052231e-06,-3.0000014305114746,-0.03608274459838867,-9.340048789978027
776668712000,9.260459046345204e-05,3.655508044175804e-05,-7.865531188144814e-06,-3.000154495239258,-0.03704965114593506,-9.339699745178223
776675740000,-1.3697121175937355e-05,-3.272675530752167e-05,5.246045475360006e-06,-3.0001401901245117,-0.03525066375732422,-9.339847564697266
776682702000,-2.2525913664139807e-05,-1.723061541269999e-05,3.3893204545165645e-06,-2.9999351501464844,-0.036104798316955566,-9.340006828308105
776696609000,8.759688353165984e-05,3.694172846735455e-05,-8.042734407354146e-06,-3.000129222869873,-0.03710198402404785,-9.339714050292969
776703472000,-1.8645403542905115e-05,-2.6810663257492706e-05,5.169248652237002e-06,-3.000110387802124,-0.03524315357208252,-9.339905738830566
776710493000,-2.2345226170727983e-05,-1.3502894034900237e-05,5.163709829503205e-06,-2.999988555908203,-0.03606438636779785,-9.340082168579102
776717322000,-3.4271462936885655e-05,-4.452114808373153e-06,4.921558684145566e-06,-2.9999985694885254,-0.03599536418914795,-9.340100288391113
776724373000,9.2548034444917e-05,4.434827496879734e-05,-7.846178050385788e-06,-3.0001437664031982,-0.037097930908203125,-9.33969497680664
776738219000,-2.7783948098658584e-05,-1.7666638086666353e-05,5.032979061070364e-06,-2.999995708465576,-0.035977959632873535,-9.340117454528809
776745307000,-2.9397866455838084e-05,-5.019204763812013e-06,5.064281594968634e-06,-2.9999942779541016,-0.03608095645904541,-9.340063095092773
776752062000,9.285355918109417e-05,4.1326806240249425e-05,-7.885687409725506e-06,-3.000148296356201,-0.037061095237731934,-9.33969783782959
776759136000,-1.3828748706146143e-05,-2.962867438327521e-05,5.245051397650968e-06,-3.000150203704834,-0.03524374961853027,-9.339837074279785
776772969000,-3.389517223695293e-05,-8.635108315502293e-06,4.8638080443197396e-06,-3.0000171661376953,-0.035988450050354004,-9.340124130249023
776779967000,8.465253631584346e-05,3.815798481809907e-05,-8.19726392364828e-06,-3.0001401901245117,-0.03704500198364258,-9.339716911315918
776786837000,-1.884363518911414e-05,-2.638088699313812e-05,5.153005986358039e-06,-3.000121831893921,-0.03524947166442871,-9.33989429473877
776793822000,-2.2416537831304595e-05,-1.3429244063445367e-05,5.1393781177466735e-06,-2.999990463256836,-0.036066293716430664,-9.34007740020752
776800746000,-3.437535633565858e-05,-4.870635166298598e-06,4.9722002586349845e-06,-3.0000014305114746,-0.03599345684051514,-9.340097427368164
776814734000,-7.027159881545231e-06,-2.29597972065676e-05,4.255339717929019e-06,-3.0001142024993896,-0.03534972667694092,-9.339740753173828
776821596000,-3.4347569453530014e-05,-2.2708289179718122e-05,4.875690137851052e-06,-3.0000483989715576,-0.03581798076629639,-9.340209007263184
776828919000,-3.439217107370496e-05,-7.717160769971088e-06,4.910344159725355e-06,-2.9999866485595703,-0.03609347343444824,-9.340068817138672
776835766000,0.00016863385098986328,9.650046558817849e-05,-1.9089769921265543e-05,-2.9996843338012695,-0.03829944133758545,-9.338699340820312
776842746000,-0.0003750699106603861,-0.0001778388541424647,-1.8992832337971777e-05,-2.9999616146087646,-0.030090928077697754,-9.340950012207031
776856553000,-4.803852061741054e-05,3.424683018238284e-05,4.5457381929736584e-06,-2.9997501373291016,-0.03644132614135742,-9.339964866638184
776863596000,8.809364953776821e-05,9.733164915814996e-05,-9.781650987861212e-06,-3.0000410079956055,-0.037157535552978516,-9.339700698852539
776870422000,-1.1553773219930008e-05,2.7221039999858476e-05,5.984955350868404e-06,-3.0002059936523438,-0.03524422645568848,-9.339943885803223
776877466000,-1.73753342096461e-05,2.768729427771177e-05,3.862056018988369e-06,-3.0000171661376953,-0.03605663776397705,-9.339885711669922
776891486000,-3.8037615013308823e-06,1.542257632536348e-05,5.01238037031726e-06,-3.0002121925354004,-0.03612947463989258,-9.339980125427246
776898359000,0.00012404032167978585,5.331201828084886e-05,-1.1407295460230671e-05,-3.000131368637085,-0.03728795051574707,-9.3392915725708
776905369000,-3.248654684284702e-05,-7.162481779232621e-05,5.030370630265679e-06,-3.0004048347473145,-0.034714460372924805,-9.33984375
776912202000,-2.42610476561822e-05,-4.5372118620434776e-05,5.213586518948432e-06,-2.9999306201934814,-0.03617548942565918,-9.340107917785645
776926115000,-2.8060547265340574e-05,-6.210149877006188e-06,5.187112947169226e-06,-2.999955177307129,-0.03608059883117676,-9.340126037597656
776932985000,9.700935333967209e-05,4.896222162642516e-05,-9.766553375811782e-06,-3.0000603199005127,-0.03710198402404785,-9.339658737182617
776939898000,-1.6927244359976612e-05,-2.7102876629214734e-05,5.244534804660361e-06,-3.0002098083496094,-0.03516852855682373,-9.339935302734375
776946878000,-2.9823198929079808e-05,-1.3354689144762233e-05,4.88878595206188e-06,-2.999967098236084,-0.036007046699523926,-9.340129852294922
776960799000,8.79956060089171e-05,4.7273788368329406e-05,-8.069876457739156e-06,-3.0001392364501953,-0.0370250940322876,-9.3397216796875
776967676000,-1.566660648677498e-05,-2.5046059818123467e-05,5.348146260075737e-06,-3.0001678466796875,-0.03524672985076904,-9.339828491210938
776974673000,-2.4666323952260427e-05,-1.2919911569042597e-05,5.171411430637818e-06,-2.999985694885254,-0.03602135181427002,-9.340106010437012
776981602000,-2.8695660148514435e-05,6.223272066563368e-07,4.441300006874371e-06,-2.9999728202819824,-0.03609001636505127,-9.34003734588623
776995519000,-1.4870882296236232e-05,-3.077382280025631e-05,5.271196641842835e-06,-3.0002312660217285,-0.035225749015808105,-9.339871406555176
777002475000,-2.4278588171000592e-05,-1.8429060219204985e-05,5.099457666801754e-06,-2.9999852180480957,-0.03601717948913574,-9.34011173248291
777009506000,-3.342190757393837e-05,-6.915635822224431e-06,4.939914106216747e-06,-2.9999887943267822,-0.036029815673828125,-9.340094566345215
777016347000,7.973871834110469e-05,3.970813486375846e-05,-8.330860509886406e-06,-3.0001301765441895,-0.03700244426727295,-9.339747428894043
777023242000,-1.066125332727097e-05,-2.1289903088472784e-05,5.478793809743365e-06,-3.000124931335449,-0.03534388542175293,-9.33985424041748
777037129000,-2.5611332603148185e-05,-2.7930582291446626e-07,5.238297944742953e-06,-3.0000011920928955,-0.0360720157623291,-9.340063095092773
777044121000,8.744590741116554e-05,4.315413752919994e-05,-7.986940545379184e-06,-3.000149726867676,-0.037000417709350586,-9.339720726013184
777051066000,-1.554515074531082e-05,-2.646030770847574e-05,5.28329564986052e-06,-3.0001490116119385,-0.035262465476989746,-9.339832305908203
777058011000,-2.3568807591800578e-05,-1.5231416909955442e-05,5.1877864279958885e-06,-2.9999938011169434,-0.0360264778137207,-9.340095520019531
777071855000,7.930538413347676e-05,3.807856046478264e-05,-8.27928124635946e-06,-3.000145435333252,-0.0369490385055542,-9.339744567871094
777078833000,-1.0007652235799469e-05,-2.275734004797414e-05,5.509288712346461e-06,-3.000123977661133,-0.03535473346710205,-9.339844703674316
777085745000,-2.3204829631140456e-05,-1.41540649565286e-05,5.191920536162797e-06,-2.9999990463256836,-0.035986900329589844,-9.340100288391113
777092904000,-2.5884279239107855e-05,-3.441873559495434e-06,5.244284693617374e-06,-3.0000054836273193,-0.03606855869293213,-9.340055465698242
777099806000,0.00011091412306996062,6.100713653722778e-05,-1.2902128219138831e-05,-2.9999570846557617,-0.037447571754455566,-9.339329719543457
777113713000,-4.4927575800102204e-05,-3.292477776994929e-05,4.494685526879039e-06,-2.999741792678833,-0.03607594966888428,-9.33993911743164
777120587000,-2.3857372070779093e-05,-8.156332114594989e-06,5.237486220721621e-06,-2.9999656677246094,-0.03624069690704346,-9.340048789978027
777127599000,9.071569365914911e-05,3.8946454878896475e-05,-8.003642506082542e-06,-3.000129222869873,-0.03701317310333252,-9.339742660522461
777134512000,-1.9065802916884422e-05,-2.5563944291207008e-05,5.174257239559665e-06,-3.000110387802124,-0.03521275520324707,-9.339923858642578
777141425000,-2.7367328584659845e-05,-1.2386215530568734e-05,5.066566245659487e-06,-2.9999828338623047,-0.03602397441864014,-9.340116500854492
777155293000,-2.5330733478767797e-05,1.3836506695952266e-05,5.375342425395502e-06,-3.000005006790161,-0.03610503673553467,-9.340046882629395
777162300000,9.485887130722404e-05,5.9591384342638776e-05,-9.727269571158104e-06,-3.000105381011963,-0.03707015514373779,-9.339598655700684
777169182000,-1.0186959116254002e-05,-2.3981487174751237e-05,5.587264240602963e-06,-3.0002684593200684,-0.03522896766662598,-9.339818954467773
777176411000,-2.7363963454263285e-05,-1.812354093999602e-05,5.05635398440063e-06,-3.000004768371582,-0.0359727144241333,-9.340083122253418
777190035000,9.565544314682484e-05,4.2120642319787294e-05,-9.85302176559344e-06,-3.000096559524536,-0.037085890769958496,-9.339614868164062
777197047000,-1.3426200894173235e-05,-3.4854507248383015e-05,5.2298501032055356e-06,-3.0002212524414062,-0.035211801528930664,-9.339892387390137
777203907000,-3.914446642738767e-05,-2.6730163881438784e-05,4.506948243943043e-06,-2.999979019165039,-0.03591012954711914,-9.340156555175781
777210916000,-2.7692323783412576e-05,-6.995524017838761e-06,5.1344759413041174e-06,-2.99998140335083,-0.036153197288513184,-9.340078353881836
777217796000,8.868305303622037e-05,4.145531784160994e-05,-8.487319064443e-06,-3.000115394592285,-0.03704977035522461,-9.339706420898438
777231723000,-3.0440791306318715e-05,-1.495668402640149e-05,4.952492872689618e-06,-2.999985694885254,-0.03600037097930908,-9.340115547180176
777238697000,-2.8213869882165454e-05,-9.366067388327792e-07,5.200332907406846e-06,-2.9999966621398926,-0.03609311580657959,-9.340070724487305
777245626000,9.69668326433748e-05,4.937896301271394e-05,-9.785809197637718e-06,-3.0000874996185303,-0.037102699279785156,-9.339612007141113
777252549000,-1.516586053185165e-05,-3.013658533745911e-05,5.253926701698219e-06,-3.0002317428588867,-0.035184502601623535,-9.339890480041504
777266428000,-2.7295936888549477e-05,-4.278532287571579e-06,5.10621157445712e-06,-2.999990463256836,-0.03613483905792236,-9.340056419372559
777273351000,8.779040945228189e-05,4.0848448406904936e-05,-8.073042408796027e-06,-3.000143051147461,-0.037016868591308594,-9.339720726013184
777280386000,-1.0586540156509727e-05,-2.504436815797817e-05,5.375396995077608e-06,-3.000136375427246,-0.03529369831085205,-9.339845657348633
777287253000,-2.6080342649947852e-05,-1.6289977793348953e-05,5.028236046200618e-06,-2.9999940395355225,-0.03596794605255127,-9.340117454528809
777294387000,-3.229249705327675e-05,-4.815694410353899e-06,4.9289988055534195e-06,-2.9999938011169434,-0.03604328632354736,-9.340082168579102
777308081000,-1.5397172319353558e-05,-2.5832625397015363e-05,5.280291588860564e-06,-3.0001401901245117,-0.03525388240814209,-9.339859962463379
777315071000,-2.546835457906127e-05,-1.5150022591114976e-05,5.124624749441864e-06,-2.9999938011169434,-0.03601109981536865,-9.340105056762695
777322019000,-2.7905040042242035e-05,-3.391747668501921e-06,5.094969310448505e-06,-2.999998092651367,-0.03607475757598877,-9.340056419372559
777328969000,8.746628009248525e-05,4.117239222978242e-05,-8.09538960311329e-06,-3.000145673751831,-0.037020206451416016,-9.339714050292969
777342830000,-2.5495408408460207e-05,-1.60146792040905e-05,5.10535483044805e-06,-2.9999923706054688,-0.03601193428039551,-9.340102195739746
777349777000,-2.7922258595936e-05,-4.315894329920411e-06,5.104072897665901e-06,-2.999998092651367,-0.036073923110961914,-9.340058326721191
777356730000,8.753292786423117e-05,4.035357778775506e-05,-8.113629519357346e-06,-3.000145196914673,-0.03702044486999512,-9.339713096618652
777363693000,-1.61716034199344e-05,-2.7242780561209656e-05,5.252774826658424e-06,-3.000138759613037,-0.03524768352508545,-9.339868545532227
777377571000,-2.7984820917481557e-05,-4.212335625197738e-06,5.108116056362633e-06,-2.9999985694885254,-0.03607285022735596,-9.34006118774414
777384528000,8.747293759370223e-05,4.0621085645398125e-05,-8.0953950600815e-06,-3.000143527984619,-0.03702127933502197,-9.339714050292969
777391422000,-1.5353452909039333e-05,-2.6726233045337722e-05,5.28535292687593e-06,-3.000138759613037,-0.0352553129196167,-9.339865684509277
777398392000,-2.6584735678625293e-05,-1.6355676052626222e-05,5.1122501645295415e-06,-2.9999938011169434,-0.03600132465362549,-9.340107917785645
777412312000,8.78435093909502e-05,4.077458652318455e-05,-8.105462256935425e-06,-3.000145435333252,-0.0370250940322876,-9.33971118927002
777419219000,-1.538350807095412e-05,-2.6965031793224625e-05,5.280278855934739e-06,-3.00014066696167,-0.03525257110595703,-9.339862823486328
777426200000,-2.6497282306081615e-05,-1.6548347048228607e-05,5.084902568341931e-06,-2.999993324279785,-0.036002397537231445,-9.340109825134277
777433102000,-2.7961545129073784e-05,-4.167348379269242e-06,5.084815711597912e-06,-2.9999966621398926,-0.03608250617980957,-9.340057373046875
777440069000,8.747383253648877e-05,4.05465871153865e-05,-8.095395969576202e-06,-3.0001449584960938,-0.03702056407928467,-9.339714050292969
777453922000,-2.541899993957486e-05,-1.6132973541971296e-05,5.143872840562835e-06,-2.9999921321868896,-0.03601336479187012,-9.34010124206543
777460901000,-2.759391827567015e-05,-4.148007064941339e-06,5.0605617616383824e-06,-2.9999966621398926,-0.03607785701751709,-9.340056419372559
777467858000,8.754619921091944e-05,4.0472954424330965e-05,-8.16530518932268e-06,-3.000145196914673,-0.03701937198638916,-9.339714050292969
777474749000,-1.6137411876115948e-05,-2.7346686692908406e-05,5.257845714368159e-06,-3.0001413822174072,-0.035245537757873535,-9.33987045288086
777481734000,-2.6553125280770473e-05,-1.6623531337245367e-05,5.103130661154864e-06,-2.999993324279785,-0.03600883483886719,-9.340106964111328
777495624000,8.725006046006456e-05,4.036506652482785e-05,-8.116718163364567e-06,-3.0001471042633057,-0.03701472282409668,-9.33971881866455
777502542000,-1.6296002286253497e-05,-2.7095260520582087e-05,5.260861144051887e-06,-3.000138282775879,-0.0352480411529541,-9.33987045288086
777509520000,-2.656235665199347e-05,-1.6236183000728488e-05,5.088948455522768e-06,-2.9999923706054688,-0.036010146141052246,-9.340106010437012
777516441000,-2.7260350179858506e-05,-3.279650627519004e-06,5.059619979874697e-06,-2.999992847442627,-0.036090850830078125,-9.34005355834961
777523359000,8.724081271793693e-05,4.07523984904401e-05,-8.130902642733417e-06,-3.0001487731933594,-0.03701210021972656,-9.339715957641602
777537260000,-2.6437599444761872e-05,-1.6413505363743752e-05,5.080862138129305e-06,-2.9999935626983643,-0.03600764274597168,-9.340105056762695
777544262000,-2.72581928584259e-05,-3.458451828919351e-06,5.059617706137942e-06,-2.999992609024048,-0.03608894348144531,-9.34005355834961
777551144000,8.727279782760888e-05,4.045474997838028e-05,-8.140020327118691e-06,-3.0001492500305176,-0.03701281547546387,-9.339715957641602
777558097000,-1.588291343068704e-05,-2.7358515580999665e-05,5.270050678518601e-06,-3.000140905380249,-0.03525102138519287,-9.339863777160645
777571990000,-2.752973887254484e-05,-4.385667125461623e-06,5.0565163292048965e-06,-2.999997615814209,-0.03608393669128418,-9.340054512023926
777579001000,8.627067290944979e-05,3.9563423342769966e-05,-8.17466207081452e-06,-3.000147819519043,-0.03700590133666992,-9.339720726013184
777585865000,-1.597708251210861e-05,-2.6987096134689637e-05,5.283211521600606e-06,-3.000135898590088,-0.035259127616882324,-9.339869499206543
777592855000,-2.649488305905834e-05,-1.6369493096135557e-05,5.099092049931642e-06,-2.9999918937683105,-0.03600811958312988,-9.340106010437012
777599774000,-2.72316192422295e-05,-3.3091109798988327e-06,5.050504569226177e-06,-2.999992847442627,-0.03609025478363037,-9.340054512023926
777613679000,-1.6176696590264328e-05,-2.719813710427843e-05,5.23858852830017e-06,-3.0001416206359863,-0.03524899482727051,-9.339865684509277
777620588000,-2.653039337019436e-05,-1.6533844245714135e-05,5.079830771137495e-06,-2.999992847442627,-0.03600895404815674,-9.340105056762695
777627786000,-2.7570282327360474e-05,-4.132820322411135e-06,5.03726050737896e-06,-2.999995231628418,-0.036087751388549805,-9.340052604675293
777634476000,8.730949048185721e-05,4.01422475988511e-05,-8.13495171314571e-06,-3.000148057937622,-0.037015676498413086,-9.339716911315918
777648406000,-2.6556423108559102e-05,-1.672788494033739e-05,5.088942543807207e-06,-2.999992609024048,-0.036008596420288086,-9.340106010437012
777655357000,-2.7260592105449177e-05,-3.6373076000018045e-06,5.045428679295583e-06,-2.9999918937683105,-0.03609120845794678,-9.340054512023926
777662304000,8.727770182304084e-05,4.0425005863653496e-05,-8.125834028760437e-06,-3.000148057937622,-0.037012338638305664,-9.339715957641602
777669199000,-1.550832712382544e-05,-2.716026756388601e-05,5.2741729632543866e-06,-3.0001401901245117,-0.03525435924530029,-9.339862823486328
777676171000,-2.96613470709417e-05,-1.736144258757122e-05,4.852280653722119e-06,-2.9999887943267822,-0.035997748374938965,-9.34010124206543
777690069000,8.75047262525186e-05,4.033832374261692e-05,-8.10451547295088e-06,-3.0001444816589355,-0.037020087242126465,-9.339713096618652
777697025000,-1.617555972188711e-05,-2.6914978661807254e-05,5.252778919384582e-06,-3.0001373291015625,-0.03524899482727051,-9.33987045288086
777703927000,-2.662401857378427e-05,-1.6207124645006843e-05,5.092991159472149e-06,-2.999992609024048,-0.036008477210998535,-9.340106010437012
777710941000,-2.795566979330033e-05,-3.899034709320404e-06,5.113192855787929e-06,-2.999997138977051,-0.03608250617980957,-9.340058326721191
777724760000,-1.535968840471469e-05,-2.6964744392898865e-05,5.256976692180615e-06,-3.00014066696167,-0.035254716873168945,-9.339859962463379
777731813000,-2.6558042009128258e-05,-1.6593785403529182e-05,5.088944817543961e-06,-2.9999938011169434,-0.03600263595581055,-9.340106964111328
777738741000,-2.789227437460795e-05,-4.449653715710156e-06,5.094957032270031e-06,-2.999998092651367,-0.03608262538909912,-9.340056419372559
777745663000,8.756820170674473e-05,4.016027014586143e-05,-8.108560905384365e-06,-3.0001449584960938,-0.03702104091644287,-9.339712142944336
777759631000,-2.5548195480951108e-05,-1.6343165043508634e-05,5.123580194776878e-06,-2.9999918937683105,-0.03601813316345215,-9.340102195739746
777766456000,-2.7924661480938084e-05,-4.4947501010028645e-06,5.089883870823542e-06,-2.99999737739563,-0.03607487678527832,-9.340058326721191
777773374000,8.753525617066771e-05,4.015987360617146e-05,-8.11363133834675e-06,-3.000145435333252,-0.03702044486999512,-9.339714050292969
777780374000,-1.6192358089028858e-05,-2.7496371330926195e-05,5.276073352433741e-06,-3.000138759613037,-0.0352480411529541,-9.339869499206543
777787263000,-2.5580588044249453e-05,-1.6388263247790746e-05,5.118507033330388e-06,-2.999992609024048,-0.036017656326293945,-9.34010124206543
777801171000,8.727585372980684e-05,4.02014484279789e-05,-8.140021236613393e-06,-3.0001485347747803,-0.03701138496398926,-9.339716911315918
777808126000,-1.613837230252102e-05,-2.7644742658594623e-05,5.243655323283747e-06,-3.000141143798828,-0.03524935245513916,-9.339865684509277
777815081000,-2.654916897881776e-05,-1.695133323664777e-05,5.103127477923408e-06,-2.999992847442627,-0.036008358001708984,-9.340105056762695
777821992000,-2.7185682483832352e-05,-4.00896169594489e-06,5.069755843578605e-06,-2.9999923706054688,-0.036090731620788574,-9.340055465698242
777835869000,-1.5478337445529178e-05,-2.7294026949675754e-05,5.2650570978585165e-06,-3.0001401901245117,-0.035254597663879395,-9.339865684509277
777842873000,-2.965571366075892e-05,-1.7450787709094584e-05,4.866466042585671e-06,-2.9999876022338867,-0.035997986793518066,-9.340100288391113
777849828000,-2.7925920221605338e-05,-4.390449248603545e-06,5.089885235065594e-06,-3.0000009536743164,-0.03608906269073486,-9.340065956115723
777856764000,8.756460738368332e-05,4.045827517984435e-05,-8.108556357910857e-06,-3.0001437664031982,-0.037020325660705566,-9.339713096618652
777870682000,-2.6557079763733782e-05,-1.6295729437842965e-05,5.103135208628373e-06,-2.999992847442627,-0.036008596420288086,-9.340107917785645
777877683000,-2.7836005756398663e-05,-4.031709977425635e-06,5.09091933054151e-06,-2.999997138977051,-0.03608405590057373,-9.340054512023926
777884587000,8.755858289077878e-05,4.057741170981899e-05,-8.12274265626911e-06,-3.000145435333252,-0.03701972961425781,-9.339713096618652
777891524000,-1.6175798009498976e-05,-2.7272637453279458e-05,5.238587618805468e-06,-3.00014066696167,-0.035248517990112305,-9.339864730834961
777905353000,-2.7890295314136893e-05,-4.613553755916655e-06,5.0949552132806275e-06,-2.9999985694885254,-0.03607380390167236,-9.340058326721191
777912333000,8.759782213019207e-05,4.0056303987512365e-05,-8.117674951790832e-06,-3.000145435333252,-0.03702139854431152,-9.339712142944336
777919263000,-1.6236803276115097e-05,-2.767573641904164e-05,5.228437657933682e-06,-3.0001397132873535,-0.03524649143218994,-9.33986759185791
777926248000,-2.5421999453101307e-05,-1.6639685782138258e-05,5.115492058394011e-06,-2.999992609024048,-0.03601861000061035,-9.34010124206543
777933199000,-2.804678661050275e-05,-4.913486918667331e-06,5.0837761591537856e-06,-2.999998092651367,-0.03607320785522461,-9.340059280395508
777947145000,-1.540762241347693e-05,-2.7695534299709834e-05,5.275196599541232e-06,-3.0001394748687744,-0.035251617431640625,-9.339864730834961
777953971000,-2.657047298271209e-05,-1.7160224160761572e-05,5.126426913193427e-06,-2.999993324279785,-0.036002397537231445,-9.340109825134277
777961120000,-2.7275540560367517e-05,-3.995144652435556e-06,5.082913958176505e-06,-2.9999918937683105,-0.036090731620788574,-9.340056419372559
777967931000,8.793275628704578e-05,4.043290391564369e-05,-8.132808943628334e-06,-3.0001468658447266,-0.037017226219177246,-9.339715003967285
777974892000,-1.546545172459446e-05,-2.7606818548520096e-05,5.293427875585621e-06,-3.0001420974731445,-0.035250306129455566,-9.339864730834961
777988711000,-2.7885740564670414e-05,-4.613499186234549e-06,5.109142421133583e-06,-3.0000016689300537,-0.03608834743499756,-9.34006404876709
777995702000,8.756344323046505e-05,4.017510582343675e-05,-8.122746294247918e-06,-3.0001444816589355,-0.03702068328857422,-9.339714050292969
778002625000,-1.6172682080650702e-05,-2.7153380870004185e-05,5.252775736153126e-06,-3.0001368522644043,-0.03524792194366455,-9.339871406555176
778009576000,-2.6585275918478146e-05,-1.6310976207023486e-05,5.112250619276892e-06,-2.9999923706054688,-0.036008477210998535,-9.340107917785645
778016516000,-2.7926214897888713e-05,-3.988092430518009e-06,5.104076535644708e-06,-2.9999966621398926,-0.03608381748199463,-9.340056419372559
778030391000,-1.5390101907541975e-05,-2.7173742637387477e-05,5.251901711744722e-06,-3.000141143798828,-0.035254478454589844,-9.339859008789062
778037300000,-2.6494763005757704e-05,-1.675695057201665e-05,5.084900294605177e-06,-2.9999942779541016,-0.0360032320022583,-9.340108871459961
778044313000,-2.7925021640839987e-05,-4.464949597604573e-06,5.089883870823542e-06,-2.99999737739563,-0.036081910133361816,-9.340057373046875
778051161000,8.75308905960992e-05,4.014491059933789e-05,-8.127819455694407e-06,-3.0001449584960938,-0.03702116012573242,-9.339712142944336
778065087000,-2.548617521824781e-05,-1.640202390262857e-05,5.119537036080146e-06,-2.999992847442627,-0.03601729869842529,-9.340102195739746
778072077000,-2.795231375785079e-05,-4.554694896796718e-06,5.098998371977359e-06,-2.999997615814209,-0.036074280738830566,-9.340058326721191
778078979000,8.747940592002124e-05,4.008468386018649e-05,-8.095401426544413e-06,-3.0001449584960938,-0.03702068328857422,-9.339713096618652
778085879000,-1.6206033251364715e-05,-2.7496536858961917e-05,5.233512183622224e-06,-3.000138521194458,-0.03524816036224365,-9.339868545532227
778099792000,-2.7164383936906233e-05,-3.8000725908204913e-06,5.046456863055937e-06,-2.9999938011169434,-0.03608298301696777,-9.340056419372559
778106736000,8.728458487894386e-05,4.023135988973081e-05,-8.111646820907481e-06,-3.000148057937622,-0.03701174259185791,-9.339715957641602
778113710000,-1.5824367437744513e-05,-2.7506832338985987e-05,5.251818947726861e-06,-3.0001401901245117,-0.035251736640930176,-9.339863777160645
778120602000,-2.6098405214725062e-05,-1.676706779107917e-05,5.051531388744479e-06,-2.9999916553497314,-0.03601086139678955,-9.340102195739746
778127757000,-2.7583604605752043e-05,-4.6247550926636904e-06,5.074743512523128e-06,-2.999997615814209,-0.03608262538909912,-9.340055465698242
778141466000,-1.58601160364924e-05,-2.689627217478119e-05,5.260940724838292e-06,-3.0001349449157715,-0.03525996208190918,-9.33986759185791
778148425000,-2.65227190539008e-05,-1.641453491174616e-05,5.108206096338108e-06,-2.9999938011169434,-0.036006808280944824,-9.340105056762695
778155336000,-2.7191255867364816e-05,-3.547058440744877e-06,5.0697617552941665e-06,-2.999993324279785,-0.03609049320220947,-9.34005355834961
778162304000,8.718293975107372e-05,4.046856702188961e-05,-8.126860848278739e-06,-3.0001487731933594,-0.03701138496398926,-9.339716911315918
778176192000,-2.6645198886399157e-05,-1.6803471226012334e-05,5.102099748910405e-06,-2.9999938011169434,-0.03600597381591797,-9.340105056762695
778183175000,-2.725369813560974e-05,-3.830953573924489e-06,5.059613158664433e-06,-2.999993324279785,-0.036090731620788574,-9.34005355834961
778190076000,8.727531530894339e-05,4.024614827358164e-05,-8.140021236613393e-06,-3.000147819519043,-0.03701317310333252,-9.339715957641602
778197071000,-1.5539457308477722e-05,-2.7309664801578037e-05,5.269098892313195e-06,-3.0001399517059326,-0.03525519371032715,-9.339862823486328
778210945000,-2.788939673337154e-05,-4.688054104917683e-06,5.094953849038575e-06,-3.000002384185791,-0.03608846664428711,-9.340065002441406
778217827000,8.750778215471655e-05,4.0085025830194354e-05,-8.104518201434985e-06,-3.0001437664031982,-0.03702044486999512,-9.339714050292969
778224793000,-1.6265294107142836e-05,-2.7288620913168415e-05,5.251743914413964e-06,-3.0001375675201416,-0.035247802734375,-9.339868545532227
778231758000,-2.6526015062700026e-05,-1.651888851483818e-05,5.094017069495749e-06,-2.9999923706054688,-0.036010146141052246,-9.340106010437012
778238687000,-2.7955549739999697e-05,-4.286492185201496e-06,5.099001100461464e-06,-2.999997615814209,-0.03608262538909912,-9.340056419372559
778252563000,-1.605337456567213e-05,-2.7256261091679335e-05,5.230501756159356e-06,-3.0001397132873535,-0.035248637199401855,-9.33986759185791
778259613000,-2.5491632186458446e-05,-1.6327579942299053e-05,5.105351192469243e-06,-2.999993085861206,-0.03601658344268799,-9.34010124206543
778266466000,-2.795195541693829e-05,-4.5844935812056065e-06,5.098997462482657e-06,-2.9999985694885254,-0.03607451915740967,-9.340059280395508
778273378000,8.750904817134142e-05,3.9980724977795035e-05,-8.104520020424388e-06,-3.000145673751831,-0.03702068328857422,-9.339712142944336
778280412000,-1.6175321434275247e-05,-2.768989361356944e-05,5.2243954087316524e-06,-3.0001397132873535,-0.03525102138519287,-9.33986759185791
778294350000,-3.747402297449298e-05,-9.214772944687866e-06,4.810470272786915e-06,-3.000049591064453,-0.03587687015533447,-9.340176582336426
778301198000,8.207545033656061e-05,3.84994491469115e-05,-8.215955858759116e-06,-3.000136375427246,-0.03705334663391113,-9.33971881866455
778308128000,-1.0634448699420318e-05,-2.304804729647003e-05,5.3987223509466276e-06,-3.000121593475342,-0.03534042835235596,-9.33984661102295
778315117000,-2.514871084713377e-05,-1.5101456483535003e-05,5.146975126990583e-06,-3.000001907348633,-0.0359727144241333,-9.340108871459961
778329080000,9.465588664170355e-05,4.300270302337594e-05,-7.766786438878626e-06,-3.0001487731933594,-0.037102341651916504,-9.339680671691895
778335921000,-1.598280869075097e-05,-2.9997419915162027e-05,5.249729838396888e-06,-3.0001542568206787,-0.0352095365524292,-9.33984375
778342881000,-2.6528554371907376e-05,-1.903739757835865e-05,5.088914804218803e-06,-2.9999914169311523,-0.03600811958312988,-9.340108871459961
778349829000,-2.713717367441859e-05,-5.677427907357924e-06,5.060621333541349e-06,-2.999990701675415,-0.03609156608581543,-9.340056419372559
778363730000,-1.0761157682281919e-05,-2.6193949452135712e-05,5.373322437662864e-06,-3.0001330375671387,-0.03530251979827881,-9.339851379394531
778370650000,-3.3898020774358884e-05,-1.9230637917644344e-05,4.74915486847749e-06,-2.9999895095825195,-0.03592109680175781,-9.34013557434082
778377651000,-2.7691568902810104e-05,-3.8660436985082924e-06,5.059535396867432e-06,-2.999993324279785,-0.03612864017486572,-9.34005069732666
778384579000,8.752405847189948e-05,4.071111834491603e-05,-8.127812179736793e-06,-3.00014591217041,-0.037017822265625,-9.339715957641602
778391480000,-1.618424903426785e-05,-2.6572333808871917e-05,5.238594894763082e-06,-3.0001378059387207,-0.0352480411529541,-9.339871406555176
778405366000,-2.761058567557484e-05,-3.522312908899039e-06,5.032195076637436e-06,-2.999995231628418,-0.03608810901641846,-9.34005069732666
778412368000,8.733139839023352e-05,4.0678991354070604e-05,-8.144059393089265e-06,-3.000148296356201,-0.03701603412628174,-9.339715003967285
778419253000,-1.6204714484047145e-05,-2.722827957768459e-05,5.247702574706636e-06,-3.00014066696167,-0.0352482795715332,-9.339863777160645
778426220000,-2.6614428861648776e-05,-1.662427166593261e-05,5.107173365104245e-06,-2.9999938011169434,-0.036008596420288086,-9.340105056762695
778440079000,8.73115350259468e-05,4.035090023535304e-05,-8.120763595798053e-06,-3.000148296356201,-0.03701364994049072,-9.339715957641602
778447065000,-1.5823829016881064e-05,-2.7551532184588723e-05,5.251818038232159e-06,-3.0001416206359863,-0.03525137901306152,-9.339862823486328
778453982000,-2.6064395569846965e-05,-1.685607094259467e-05,5.056603185948916e-06,-2.9999916553497314,-0.03601217269897461,-9.340100288391113
778460996000,-2.7590742320171557e-05,-4.788766091223806e-06,5.046367277827812e-06,-2.9999983310699463,-0.03608143329620361,-9.340056419372559
778467865000,8.630647062091157e-05,3.932541949325241e-05,-8.169592547346838e-06,-3.0001471042633057,-0.03700757026672363,-9.339720726013184
778481801000,-2.9693132091779262e-05,-1.7078684322768822e-05,4.861397883360041e-06,-2.999987840652466,-0.03600156307220459,-9.34009838104248
778488694000,-2.7953332391916774e-05,-4.092737071914598e-06,5.113190582051175e-06,-3.0000014305114746,-0.03608822822570801,-9.340065956115723
778495664000,8.746730600250885e-05,4.07104344049003e-05,-8.109582267934456e-06,-3.0001444816589355,-0.03702056407928467,-9.339715003967285
778502583000,-1.5636325770174153e-05,-2.671474612725433e-05,5.282263373374008e-06,-3.000138759613037,-0.03525185585021973,-9.339865684509277
778516509000,-2.7897847758140415e-05,-3.987750460510142e-06,5.094962489238242e-06,-2.999998092651367,-0.03608286380767822,-9.340056419372559
778523431000,8.752747817197815e-05,4.042801811010577e-05,-8.1278158177156e-06,-3.00014591217041,-0.03701972961425781,-9.339712142944336
778530500000,-1.6163270629476756e-05,-2.7555630367714912e-05,5.266957487037871e-06,-3.00014066696167,-0.03524923324584961,-9.339862823486328
778537300000,-2.5540584829286672e-05,-1.65964102052385e-05,5.137764674145728e-06,-2.999993085861206,-0.03601706027984619,-9.34010124206543
778544322000,-2.7831214538309723e-05,-4.806570359505713e-06,5.076723482488887e-06,-2.999998092651367,-0.03607654571533203,-9.340057373046875
778558163000,-1.6042702554841526e-05,-2.7762807803810574e-05,5.24468305229675e-06,-3.000138282775879,-0.03524887561798096,-9.33986759185791
778565144000,-2.5454210117459297e-05,-1.6699685147614218e-05,5.110418896947522e-06,-2.999992847442627,-0.03601694107055664,-9.34010124206543
778572066000,-2.7859583497047424e-05,-4.806910510524176e-06,5.085837528895354e-06,-2.999997615814209,-0.03607463836669922,-9.340060234069824
778579033000,8.753286965657026e-05,3.99810160160996e-05,-8.127819455694407e-06,-3.0001442432403564,-0.037020325660705566,-9.339713096618652
778592855000,-2.5511493731755763e-05,-1.6655669242027216e-05,5.128649263497209e-06,-2.999993324279785,-0.03601729869842529,-9.340102195739746
778599847000,-2.715203481784556e-05,-4.068164344062097e-06,5.074827640783042e-06,-2.999992847442627,-0.03608286380767822,-9.340055465698242
778606751000,8.728112152311951e-05,4.014190562884323e-05,-8.125836757244542e-06,-3.0001468658447266,-0.03701210021972656,-9.339716911315918
778613740000,-1.5846570022404194e-05,-2.764122109510936e-05,5.275119292491581e-06,-3.000140905380249,-0.03525090217590332,-9.339865684509277
778620646000,-2.554193815740291e-05,-1.6313282685587183e-05,4.94929281558143e-06,-2.9999871253967285,-0.03602159023284912,-9.340094566345215
778634579000,8.586927287979051e-05,3.885816840920597e-05,-8.183862519217655e-06,-3.0001492500305176,-0.037001967430114746,-9.339720726013184
778641534000,-1.591835643921513e-05,-2.715031587285921e-05,5.2649807003035676e-06,-3.000133514404297,-0.03526294231414795,-9.339871406555176
778648525000,-2.620294617372565e-05,-1.629145845072344e-05,5.036320089857327e-06,-2.999990463256836,-0.03601253032684326,-9.34010124206543
778655406000,-2.7597754524322227e-05,-4.207662641420029e-06,5.046373644290725e-06,-2.999998092651367,-0.036083221435546875,-9.34005355834961
778669301000,-1.6240337572526187e-05,-2.7005176889360882e-05,5.242632141744252e-06,-3.000135898590088,-0.03525662422180176,-9.339869499206543
778676197000,-2.6561638151179068e-05,-1.629578400752507e-05,5.088948455522768e-06,-2.999992847442627,-0.036010026931762695,-9.340103149414062
778683208000,-2.7257114197709598e-05,-3.5478533391142264e-06,5.0596163418958895e-06,-2.9999938011169434,-0.036090970039367676,-9.340052604675293
778690125000,8.730133413337171e-05,4.04401907871943e-05,-8.14913528301986e-06,-3.0001487731933594,-0.03701281547546387,-9.339715003967285
778704005000,-2.6136969609069638e-05,-1.6678121028235182e-05,5.032273293181788e-06,-2.9999918937683105,-0.03601181507110596,-9.340100288391113
778711006000,-2.7563988624024205e-05,-4.654324584407732e-06,5.037253686168697e-06,-2.999998092651367,-0.03608250617980957,-9.340054512023926
778717893000,8.615569095127285e-05,3.930869934265502e-05,-8.152394002536312e-06,-3.000147581100464,-0.03700578212738037,-9.339720726013184
778724848000,-1.556615279696416e-05,-2.7071553631685674e-05,5.292403784551425e-06,-3.0001349449157715,-0.0352628231048584,-9.33986759185791
778731826000,-2.9663682653335854e-05,-1.716774386295583e-05,4.852282472711522e-06,-2.999988079071045,-0.03599870204925537,-9.34010124206543
778745684000,8.761713979765773e-05,4.042909131385386e-05,-8.140970749082044e-06,-3.0001437664031982,-0.03702199459075928,-9.339713096618652
778752611000,-1.616866393305827e-05,-2.7108628273708746e-05,5.266962944006082e-06,-3.000138282775879,-0.035247802734375,-9.33987045288086
778759570000,-2.667806802492123e-05,-1.643130963202566e-05,5.111217433295678e-06,-2.9999935626983643,-0.03600776195526123,-9.340105056762695
778766559000,-2.7918064006371424e-05,-4.286039256840013e-06,5.118260560266208e-06,-2.999997138977051,-0.03608429431915283,-9.34005355834961
778780489000,-1.54135577759007e-05,-2.720383054111153e-05,5.2752025112567935e-06,-3.0001401901245117,-0.0352555513381958,-9.339862823486328
778787314000,-2.5395245756953955e-05,-1.6505246094311588e-05,5.106378921482246e-06,-2.999992847442627,-0.036012887954711914,-9.340100288391113
778794440000,-2.753015905909706e-05,-4.7284247557399794e-06,5.042325028625783e-06,-2.999998092651367,-0.03607833385467529,-9.340052604675293
778801339000,0.00012144325592089444,6.427856715163216e-05,-1.3135294466337655e-05,-2.9999430179595947,-0.0375521183013916,-9.339271545410156
778815265000,-3.8126727304188535e-05,-3.4943921491503716e-05,4.540453119261656e-06,-2.999734401702881,-0.036183714866638184,-9.339911460876465
778822194000,-2.962485814350657e-05,-1.3501319699571468e-05,5.013457212044159e-06,-2.999964952468872,-0.036144256591796875,-9.34009838104248
778829200000,-3.604270750656724e-05,2.128206688212231e-06,4.91728224005783e-06,-2.999969482421875,-0.03604137897491455,-9.34012222290039
778836094000,9.405835589859635e-05,5.648205114994198e-05,-9.802440217754338e-06,-3.000075578689575,-0.03713512420654297,-9.339629173278809
778842986000,-1.3836757716489956e-05,-1.8973667465616018e-05,5.425567906058859e-06,-3.0002174377441406,-0.03521370887756348,-9.339908599853516
778856883000,9.049727668752894e-05,3.559082324500196e-05,-8.030077879084274e-06,-3.0001449584960938,-0.037053585052490234,-9.339695930480957
778863886000,-1.7026777641149238e-05,-3.598581679398194e-05,5.185620921110967e-06,-3.0001542568206787,-0.03522956371307373,-9.339845657348633
778870781000,-3.530686080921441e-05,-2.508931720512919e-05,4.723489382740809e-06,-2.9999771118164062,-0.035959601402282715,-9.340144157409668
778877787000,-2.3589886041008867e-05,-6.051886884961277e-06,5.174738362256903e-06,-2.999980926513672,-0.036163926124572754,-9.340054512023926
778884758000,9.087800572160631e-05,3.9604114135727286e-05,-8.058323146542534e-06,-3.000138521194458,-0.03701138496398926,-9.339729309082031
778898683000,-2.722215504036285e-05,-1.6229245375143364e-05,5.081738891021814e-06,-2.999983310699463,-0.03602421283721924,-9.340113639831543
778905503000,-2.8911639674333856e-05,-2.7779988158727065e-06,5.102904651721474e-06,-2.9999899864196777,-0.03606843948364258,-9.340078353881836
778912492000,8.972724754130468e-05,4.313696990720928e-05,-7.999709850992076e-06,-3.0001442432403564,-0.037046074867248535,-9.339707374572754
778919385000,-1.7001615560729988e-05,-2.677592601685319e-05,5.220207640377339e-06,-3.00014591217041,-0.03523540496826172,-9.339855194091797
778933321000,-2.3877455532783642e-05,-1.0333005775464699e-06,5.247715307632461e-06,-2.9999935626983643,-0.03614544868469238,-9.340036392211914
778940217000,-2.496573142707348e-05,9.37023651204072e-06,5.369265181798255e-06,-3.000009298324585,-0.03606700897216797,-9.34005355834961
778947284000,9.362370474264026e-05,5.458422674564645e-05,-9.765050890564453e-06,-3.0001065731048584,-0.037056803703308105,-9.339605331420898
778954113000,-1.8815284420270473e-05,-2.797508568619378e-05,5.1813622121699154e-06,-3.0002477169036865,-0.03518712520599365,-9.339859008789062
778961106000,-2.722666977206245e-05,-1.7451280655222945e-05,5.119212801218964e-06,-2.999997138977051,-0.03602242469787598,-9.340093612670898
778974938000,9.315093484474346e-05,3.860329161398113e-05,-7.939377610455267e-06,-3.0001540184020996,-0.03699684143066406,-9.339703559875488
778981935000,-1.3727232726523653e-05,-3.333811037009582e-05,5.2267782848502975e-06,-3.0001561641693115,-0.0352400541305542,-9.33983039855957
778988842000,-3.677327185869217e-05,-2.495799162716139e-05,4.646218712878181e-06,-2.999983787536621,-0.03592109680175781,-9.340150833129883
778995809000,-2.9412760341074318e-05,-7.269623893080279e-06,5.030808097217232e-06,-2.999983310699463,-0.03613638877868652,-9.340067863464355
779009667000,-1.422089189873077e-05,-2.799415960907936e-05,5.25513769389363e-06,-3.0001375675201416,-0.03523421287536621,-9.339862823486328
779016696000,-3.204879249096848e-05,-1.862713907030411e-05,4.778878064826131e-06,-2.999985694885254,-0.03596341609954834,-9.34012508392334
779023614000,-3.0173836421454325e-05,-4.328159775468521e-06,5.0134872253693175e-06,-2.9999942779541016,-0.036090850830078125,-9.340075492858887
779030574000,9.273229807149619e-05,4.31881271651946e-05,-7.900882337708026e-06,-3.0001423358917236,-0.03706538677215576,-9.339704513549805
779037441000,-1.8860448108171113e-05,-2.8094847948523238e-05,5.1337265176698565e-06,-3.0001447200775146,-0.035201430320739746,-9.339869499206543
779044449000,-2.2996335246716626e-05,-1.4971171367506031e-05,5.128108114149654e-06,-2.999988555908203,-0.03605985641479492,-9.34008502960205
779058295000,8.503926073899493e-05,4.045759851578623e-05,-8.173854439519346e-06,-3.000145435333252,-0.03701174259185791,-9.339726448059082
779065326000,-1.887092730612494e-05,-2.6470632292330265e-05,5.162119123269804e-06,-3.000133752822876,-0.03524649143218994,-9.339875221252441
779072180000,-2.2469328541774303e-05,-1.3757731721852906e-05,5.157604391570203e-06,-2.9999918937683105,-0.0360645055770874,-9.34007740020752
779079212000,-2.9354068828979507e-05,-3.945715434383601e-06,5.046065325586824e-06,-3.000002145767212,-0.03603768348693848,-9.340070724487305
779092995000,-1.402509406034369e-05,-2.6248235371895134e-05,5.24810457136482e-06,-3.0001368522644043,-0.035285115242004395,-9.339832305908203
779099992000,-2.7759113436331972e-05,-1.699573840596713e-05,5.0380594984744675e-06,-2.999995708465576,-0.035979270935058594,-9.340116500854492
779106885000,-2.9698308935621753e-05,-4.307523340685293e-06,5.032825811213115e-06,-2.9999942779541016,-0.03607821464538574,-9.34006404876709
779113878000,9.281128586735576e-05,4.2101215512957424e-05,-7.890748747740872e-06,-3.000147819519043,-0.037062764167785645,-9.33969783782959
779120792000,-1.880665877251886e-05,-2.9822862416040152e-05,5.138778760738205e-06,-3.000148296356201,-0.03520047664642334,-9.339863777160645
779134726000,-2.916741868830286e-05,-6.059579391148873e-06,4.962977982359007e-06,-2.9999961853027344,-0.03604257106781006,-9.340070724487305
779141643000,8.497879025526345e-05,3.887723505613394e-05,-8.22658148535993e-06,-3.000143051147461,-0.03700852394104004,-9.339727401733398
779148597000,-1.4184404790285043e-05,-2.5937208192772232e-05,5.251119546301197e-06,-3.0001299381256104,-0.0352863073348999,-9.339863777160645
779155519000,-2.8870737878605723e-05,-1.6621692338958383e-05,5.0024004849547055e-06,-2.9999938011169434,-0.035971879959106445,-9.34012222290039
779169398000,9.279594814870507e-05,4.2995172407245263e-05,-7.904927770141512e-06,-3.0001473426818848,-0.037065982818603516,-9.339699745178223
779176321000,-1.881636489997618e-05,-2.9018257919233292e-05,5.138787855685223e-06,-3.0001492500305176,-0.03520095348358154,-9.339861869812012
779183332000,-2.2437801817432046e-05,-1.5992689441191033e-05,5.1717652240768075e-06,-2.999990224838257,-0.03606212139129639,-9.340083122253418
779190243000,-2.922589919762686e-05,-5.53870813746471e-06,4.99540055898251e-06,-2.9999966621398926,-0.036041855812072754,-9.340069770812988
779204124000,-1.867305581981782e-05,-2.6870606234297156e-05,5.17836360813817e-06,-3.0001301765441895,-0.03524649143218994,-9.339882850646973
779211246000,-2.2399159206543118e-05,-1.4114536497800145e-05,5.167744348000269e-06,-2.9999911785125732,-0.03606367111206055,-9.340079307556152
779218055000,-3.0007749955984764e-05,-4.445375452633016e-06,5.038847575633554e-06,-3.000002145767212,-0.03603196144104004,-9.34007453918457
779224944000,9.274433978134766e-05,4.218982212478295e-05,-7.900893251644447e-06,-3.000148296356201,-0.03706514835357666,-9.339698791503906
779231942000,-1.8804139472194947e-05,-3.003146412083879e-05,5.1387760322541e-06,-3.0001494884490967,-0.0352017879486084,-9.339859008789062
779245816000,-2.932438837888185e-05,-5.9422563936095685e-06,4.965990228811279e-06,-2.9999938011169434,-0.03605353832244873,-9.340068817138672
779252734000,8.486313163302839e-05,3.905466292053461e-05,-8.190120752260555e-06,-3.000142812728882,-0.037009596824645996,-9.339728355407715
779259686000,-1.9097235053777695e-05,-2.644355845404789e-05,5.140800567460246e-06,-3.0001258850097656,-0.03524589538574219,-9.339889526367188
779266645000,-2.237779517599847e-05,-1.3533089258999098e-05,5.158636668056715e-06,-2.9999916553497314,-0.03606605529785156,-9.340079307556152
779273556000,-3.0009847250767052e-05,-3.894016117556021e-06,5.053041604696773e-06,-3.000001907348633,-0.03603160381317139,-9.34007453918457
779287446000,-1.8591688785818405e-05,-3.004380050697364e-05,5.117533873999491e-06,-3.000152826309204,-0.03519725799560547,-9.339856147766113
779294467000,-2.7840218535857275e-05,-1.8084581824950874e-05,5.037016308051534e-06,-2.999987840652466,-0.036018967628479004,-9.340109825134277
779301364000,-2.898656384786591e-05,-4.671488568419591e-06,4.993427864974365e-06,-2.9999895095825195,-0.036086440086364746,-9.34006118774414
779308288000,8.548797632101923e-05,3.997123349108733e-05,-8.15959538158495e-06,-3.000145435333252,-0.037009358406066895,-9.339725494384766
779322181000,-2.7803365810541436e-05,-1.6057430912042037e-05,5.03299770571175e-06,-2.9999961853027344,-0.03597879409790039,-9.340116500854492
779329193000,-2.9766018997179344e-05,-3.399301931494847e-06,5.051065727457171e-06,-2.9999942779541016,-0.03607809543609619,-9.34006404876709
779336087000,9.634955495130271e-05,4.542241367744282e-05,-8.445365892839618e-06,-3.0001282691955566,-0.03712010383605957,-9.339648246765137
779343014000,-1.855986556620337e-05,-3.26811132254079e-05,5.11750249643228e-06,-3.000190258026123,-0.03514587879180908,-9.339875221252441
779350052000,-2.8105054298066534e-05,-2.0323113858466968e-05,5.005525054002646e-06,-2.9999852180480957,-0.03601419925689697,-9.340117454528809
779363885000,8.51448712637648e-05,3.876001574099064e-05,-8.201220225600991e-06,-3.00014066696167,-0.03700911998748779,-9.33973217010498
779370803000,-1.4092385754338466e-05,-2.4997256332426332e-05,5.280535333440639e-06,-3.000123977661133,-0.03528702259063721,-9.33987045288086
779377794000,-2.783947275020182e-05,-1.5417070244438946e-05,5.0421213018125854e-06,-2.999993324279785,-0.0359797477722168,-9.340118408203125
779384704000,-3.0099086870905012e-05,-3.0903665901860222e-06,5.000344572181348e-06,-2.9999961853027344,-0.03607594966888428,-9.340063095092773
779398684000,-1.8564089259598404e-05,-2.9223845558590256e-05,5.136803338245954e-06,-3.000150680541992,-0.035201072692871094,-9.33985424041748
779405515000,-2.2315800379146822e-05,-1.631906343391165e-05,5.149488970346283e-06,-2.999990940093994,-0.036063432693481445,-9.340082168579102
779412534000,-2.9540145987994038e-05,-6.034271791577339e-06,4.97304426971823e-06,-2.999998092651367,-0.036037445068359375,-9.340072631835938
779419426000,8.477610390400514e-05,3.8457528717117384e-05,-8.191155757231172e-06,-3.0001463890075684,-0.03700876235961914,-9.339725494384766
779426349000,-1.8803511920850724e-05,-2.6976493245456368e-05,5.158071417099563e-06,-3.000126838684082,-0.03524935245513916,-9.339886665344238
779440249000,-2.9985916626174003e-05,-4.281184374121949e-06,5.015548140363535e-06,-3.0000014305114746,-0.03603184223175049,-9.340075492858887
779447227000,8.500345575157553e-05,4.0695602365303785e-05,-8.178923962987028e-06,-3.00014328956604,-0.03701651096343994,-9.339719772338867
779454151000,-1.3780061635770835e-05,-2.5097804609686136e-05,5.274509021546692e-06,-3.000135898590088,-0.03529036045074463,-9.339848518371582
779461144000,-2.7103327738586813e-05,-1.591486216057092e-05,5.073657575849211e-06,-2.9999966621398926,-0.03598225116729736,-9.34011459350586
779474946000,9.34725976549089e-05,4.234763400745578e-05,-7.869348337408155e-06,-3.000149726867676,-0.037065982818603516,-9.33969497680664
779481946000,-1.863464422058314e-05,-3.043178003281355e-05,5.16413319928688e-06,-3.000152349472046,-0.03519713878631592,-9.339858055114746
779488847000,-2.2938833353691734e-05,-1.738464015943464e-05,5.118963599670678e-06,-2.9999887943267822,-0.03605973720550537,-9.340084075927734
779495844000,-2.9221529985079542e-05,-6.656322511844337e-06,4.967012955603423e-06,-2.9999964237213135,-0.03604400157928467,-9.340072631835938
779502764000,8.51484655868262e-05,3.8462017982965335e-05,-8.2012247730745e-06,-3.000142812728882,-0.037009358406066895,-9.339730262756348
779516666000,-2.240059620817192e-05,-1.3995336303196382e-05,5.167746621737024e-06,-2.9999914169311523,-0.036063551902770996,-9.340082168579102
779523580000,-2.9982615160406567e-05,-4.176828952040523e-06,5.029736257711193e-06,-3.000000476837158,-0.036032915115356445,-9.34007453918457
779530548000,9.27745713852346e-05,4.241372153046541e-05,-7.895818271208555e-06,-3.0001487731933594,-0.037064194679260254,-9.339699745178223
779537462000,-1.8864300727727823e-05,-2.9749046007054858e-05,5.157009127287893e-06,-3.0001490116119385,-0.035201072692871094,-9.339860916137695
779551381000,-2.780915383482352e-05,-3.2713669497752562e-06,4.813288342120359e-06,-2.9999823570251465,-0.03610563278198242,-9.340046882629395
779558333000,8.516252273693681e-05,4.002691639470868e-05,-8.196131602744572e-06,-3.0001542568206787,-0.0369877815246582,-9.339738845825195
779565290000,-1.374443672830239e-05,-2.532091093598865e-05,5.2795803640037775e-06,-3.000133514404297,-0.03528940677642822,-9.339855194091797
779572203000,-2.7134819902130403e-05,-1.6034464351832867e-05,5.0685839596553706e-06,-2.9999961853027344,-0.03598213195800781,-9.340113639831543
779586138000,9.41789330681786e-05,4.2892646888503805e-05,-7.988786819623783e-06,-3.0001444816589355,-0.037077903747558594,-9.33968448638916
779593039000,-1.857885581557639e-05,-3.0729148420505226e-05,5.131712896400131e-06,-3.0001583099365234,-0.03518664836883545,-9.339863777160645
779600034000,-2.7833384592668153e-05,-1.86507822945714e-05,5.037009941588622e-06,-2.9999876022338867,-0.0360182523727417,-9.34011173248291
779606937000,-2.895405668823514e-05,-5.013846021029167e-06,4.984308816347038e-06,-2.999988079071045,-0.0360865592956543,-9.340063095092773
779613946000,9.319157106801867e-05,4.145010461797938e-05,-7.900824130047113e-06,-3.0001490116119385,-0.037058472633361816,-9.339705467224121
779627798000,-2.3820857677492313e-05,-1.6933314327616245e-05,5.118813533044886e-06,-2.999988555908203,-0.03605341911315918,-9.34009075164795
779634731000,-2.929979564214591e-05,-5.629011866403744e-06,4.9568798203836195e-06,-2.9999947547912598,-0.03605043888092041,-9.340071678161621
779641633000,8.485373109579086e-05,3.9456910599255934e-05,-8.204304322134703e-06,-3.0001425743103027,-0.03700876235961914,-9.339729309082031
779648665000,-1.4225064660422504e-05,-2.5296902094851248e-05,5.246055479801726e-06,-3.0001306533813477,-0.03528702259063721,-9.339862823486328
779662659000,-2.9800205084029585e-05,-3.2953976187855005e-06,5.045994839747436e-06,-2.9999942779541016,-0.0360875129699707,-9.340057373046875
779669469000,9.273337491322309e-05,4.309872747398913e-05,-7.900882337708026e-06,-3.0001490116119385,-0.037062764167785645,-9.339698791503906
779676365000,-1.8873710359912366e-05,-2.9346798328333534e-05,5.142826012161095e-06,-3.0001509189605713,-0.03520071506500244,-9.33985710144043
779683359000,-2.2377103960025124e-05,-1.6319803762598895e-05,5.153531674295664e-06,-2.999990940093994,-0.03606414794921875,-9.340083122253418
779697291000,8.479890675516799e-05,3.891977030434646e-05,-8.200266165658832e-06,-3.0001440048217773,-0.037007689476013184,-9.339728355407715
779704150000,-1.8799317331286147e-05,-2.694663817237597e-05,5.17225907969987e-06,-3.000128746032715,-0.035247802734375,-9.339883804321289
779711138000,-2.249248791486025e-05,-1.4190174624673091e-05,5.16671343575581e-06,-2.9999923706054688,-0.03606367111206055,-9.340079307556152
779718054000,-3.0069408239796758e-05,-4.416315277921967e-06,5.0428902795829345e-06,-3.0000014305114746,-0.036032676696777344,-9.34007453918457
779724987000,8.500561671098694e-05,4.0516799344914034e-05,-8.178927600965835e-06,-3.000143527984619,-0.037016868591308594,-9.339719772338867
779738881000,-2.719701842579525e-05,-1.5960700693540275e-05,5.072626663604751e-06,-2.999997138977051,-0.03598284721374512,-9.340112686157227
779746166000,-3.0053390219109133e-05,-4.147879735683091e-06,5.005405455449363e-06,-2.999997138977051,-0.03607177734375,-9.34006118774414
779752761000,9.356207010569051e-05,4.236361201037653e-05,-7.882505087764002e-06,-3.0001487731933594,-0.037070274353027344,-9.339693069458008
779759738000,-1.8542206817073748e-05,-3.0281642466434278e-05,5.165165475773392e-06,-3.000152111053467,-0.03519618511199951,-9.339860916137695
779766702000,-2.2879692551214248e-05,-1.7205100448336452e-05,5.114923624205403e-06,-2.9999890327453613,-0.036060333251953125,-9.340084075927734
779780602000,8.521145355189219e-05,3.8701204175595194e-05,-8.191074812202714e-06,-3.0001425743103027,-0.03701019287109375,-9.339729309082031
779787482000,-1.8864995581679977e-05,-2.6962334231939167e-05,5.162114575796295e-06,-3.0001275539398193,-0.03524458408355713,-9.339888572692871
779794507000,-2.240497269667685e-05,-1.4010291124577634e-05,5.153559413884068e-06,-2.999990701675415,-0.03606569766998291,-9.340079307556152
779801430000,-2.9986993467900902e-05,-4.191784682916477e-06,5.015549049858237e-06,-3.000000476837158,-0.036033034324645996,-9.34007453918457
779808368000,8.500873809680343e-05,4.0636059566168115e-05,-8.164739483618177e-06,-3.0001444816589355,-0.037015557289123535,-9.33971881866455
779815329000,-1.383554445055779e-05,-2.5202793040079996e-05,5.2927380238543265e-06,-3.000135898590088,-0.03528892993927002,-9.339850425720215
779829238000,-2.9478713258868083e-05,-4.155846909270622e-06,5.039959432906471e-06,-2.99999737739563,-0.03607511520385742,-9.340058326721191
779836131000,9.34754716581665e-05,4.210923725622706e-05,-7.869351975386962e-06,-3.000149726867676,-0.03706550598144531,-9.339694023132324
779843065000,-1.860992779256776e-05,-3.0505991162499413e-05,5.140830580785405e-06,-3.000152111053467,-0.03519725799560547,-9.339859962463379
779850038000,-2.293355828442145e-05,-1.7444184777559713e-05,5.133150352776283e-06,-2.999988555908203,-0.03605985641479492,-9.340084075927734
779863989000,8.51451768539846e-05,3.8357666198862717e-05,-8.215412890422158e-06,-3.000143051147461,-0.03700911998748779,-9.339729309082031
779870921000,-1.895286732178647e-05,-2.7112419047625735e-05,5.1752699619100895e-06,-3.0001261234283447,-0.03524637222290039,-9.339889526367188
779877825000,-2.2394597181119025e-05,-1.4114481928118039e-05,5.181931555853225e-06,-2.999990463256836,-0.0360645055770874,-9.340080261230469
779884796000,-2.9952803743071854e-05,-4.29568717663642e-06,5.0206203923153225e-06,-3.0000007152557373,-0.036033034324645996,-9.340073585510254
779898738000,-1.3713126463699155e-05,-2.5186413040501066e-05,5.284653525450267e-06,-3.0001351833343506,-0.03529024124145508,-9.339849472045898
779905606000,-2.7045864044339396e-05,-1.5973777408362366e-05,5.055427209299523e-06,-2.99999737739563,-0.03598320484161377,-9.34011459350586
779912537000,-2.944979860330932e-05,-4.200206603854895e-06,5.030844477005303e-06,-2.999997854232788,-0.03607439994812012,-9.340058326721191
779919471000,9.34747513383627e-05,4.2168838263023645e-05,-7.869352884881664e-06,-3.0001487731933594,-0.037065744400024414,-9.339694023132324
779926407000,-1.8643757357494906e-05,-3.0431887353188358e-05,5.135759238328319e-06,-3.0001518726348877,-0.035196661949157715,-9.339859962463379
779940307000,-2.910438342951238e-05,-6.580397894140333e-06,4.944741704093758e-06,-2.9999966621398926,-0.03604388236999512,-9.340072631835938
779947300000,8.511974010616541e-05,3.849148197332397e-05,-8.192109817173332e-06,-3.000143051147461,-0.03700852394104004,-9.339730262756348
779954201000,-1.8959046428790316e-05,-2.697837226151023e-05,5.1610832088044845e-06,-3.000126361846924,-0.03524577617645264,-9.339888572692871
779961274000,-2.252122067147866e-05,-1.4160717000777368e-05,5.175828391656978e-06,-2.9999921321868896,-0.03606438636779785,-9.340078353881836
779975131000,8.767948020249605e-05,2.1101586753502488e-05,-4.580460881697945e-06,-3.0005502700805664,-0.03642582893371582,-9.340269088745117
779982140000,-2.2123189410194755e-05,-3.1561736250296235e-05,4.786544650414726e-06,-2.999903917312622,-0.035390257835388184,-9.339629173278809
779989022000,-3.899375951732509e-05,-2.179570401494857e-05,4.674239335145103e-06,-2.9999911785125732,-0.035956740379333496,-9.340147972106934
780022156000,0.0003846277832053602,0.00025407623616047204,-5.187645729165524e-05,-2.9987664222717285,-0.04059410095214844,-9.336491584777832
780034200000,-0.0007379924063570797,-0.0007157226209528744,0.0001501400547567755,-3.006885051727295,-0.023931026458740234,-9.353919982910156
780048553000,0.0005070994375273585,0.000445573590695858,3.0028095352463424e-06,-2.997973680496216,-0.04586482048034668,-9.335698127746582
780048553000,0.0005070994375273585,0.000445573590695858,3.0028095352463424e-06,-2.997973680496216,-0.04586482048034668,-9.335698127746582
780065879000,-0.0003111703263130039,-1.1480296961963177e-06,1.1980297131231055e-05,-2.9963455200195312,-0.04021096229553223,-9.336468696594238
780072531000,-6.532096449518576e-05,0.00016417924780398607,-1.6451838746434078e-05,-2.999241828918457,-0.03864753246307373,-9.33892822265625
780079776000,0.0003259579825680703,0.00044004846131429076,-6.614824815187603e-05,-2.9980058670043945,-0.04178190231323242,-9.335495948791504
780093525000,3.992184065282345e-05,-0.0003677080967463553,7.160997483879328e-06,-3.0010571479797363,-0.03102743625640869,-9.339126586914062
780101073000,-4.169001476839185e-05,-0.00031257112277671695,6.696271157125011e-06,-2.9996094703674316,-0.035711050033569336,-9.340729713439941
780107908000,1.393542333971709e-05,-0.00018292092136107385,6.685075277346186e-06,-2.999387264251709,-0.03674745559692383,-9.340532302856445
780114510000,-3.2086187275126576e-05,-0.00014538640971295536,1.967928619706072e-05,-3.0001730918884277,-0.03509402275085449,-9.34183120727539
780128415000,-5.608997889794409e-05,2.057344318018295e-05,1.2490527296904474e-05,-2.999422073364258,-0.035147786140441895,-9.340572357177734
780135301000,7.094293687259778e-05,0.00010329424549126998,1.3703020158573054e-06,-3.000046730041504,-0.036987900733947754,-9.340259552001953
780142191000,-3.748414383153431e-05,5.729364056605846e-05,9.909547770803329e-06,-2.999845027923584,-0.03529942035675049,-9.339703559875488
780149260000,-3.938013469451107e-05,6.297834625001997e-05,8.508914106641896e-06,-2.999999523162842,-0.03600037097930908,-9.339981079101562
780163102000,-2.385798143222928e-05,8.1466423580423e-06,4.971230282535544e-06,-3.0002846717834473,-0.03530311584472656,-9.33962631225586
780169989000,-2.4178694729926065e-05,4.447014362085611e-06,5.198089638724923e-06,-3.000088691711426,-0.03604614734649658,-9.339927673339844
780176895000,8.991804497782141e-05,4.2558331188047305e-05,-8.011636964511126e-06,-3.000176429748535,-0.0369800329208374,-9.339669227600098
780184001000,-2.394229159108363e-05,-3.566697705537081e-05,5.010975201003021e-06,-3.000176429748535,-0.03515267372131348,-9.339824676513672
780190825000,-2.7818306989502162e-05,-1.2928221622132696e-05,5.10390827912488e-06,-2.999929428100586,-0.03603363037109375,-9.340178489685059
780204695000,-2.576913175289519e-05,2.8241604013601318e-05,5.429260454548057e-06,-2.9999613761901855,-0.036034345626831055,-9.340128898620605
780211713000,9.767273149918765e-05,7.48258680687286e-05,-8.482898010697681e-06,-3.0001907348632812,-0.03701746463775635,-9.339788436889648
780218729000,-2.341357685509138e-06,-2.919355665653711e-06,4.003115464001894e-06,-3.000109910964966,-0.03528487682342529,-9.339570045471191
780225520000,-1.7820320863393135e-05,-7.72589828557102e-06,5.628653525491245e-06,-3.000107765197754,-0.035944223403930664,-9.340081214904785
780232568000,-2.460236646584235e-05,5.708587195840664e-06,5.485816473083105e-06,-2.9999756813049316,-0.03601193428039551,-9.340104103088379
780246652000,-1.53925248014275e-05,-2.1972944523440674e-05,5.34206901647849e-06,-3.0002260208129883,-0.035191893577575684,-9.339875221252441
780253355000,-2.5156601623166353e-05,-7.099130016285926e-06,5.228110239841044e-06,-2.999965190887451,-0.03598582744598389,-9.340145111083984
780260259000,-2.2717118554282933e-05,9.248275091522373e-06,5.44568274563062e-06,-2.9999759197235107,-0.03607296943664551,-9.340085983276367
780267268000,9.345389844384044e-05,5.885937571292743e-05,-9.742461770656519e-06,-3.000072479248047,-0.03701174259185791,-9.339661598205566
780281112000,-2.428326479275711e-05,-4.942667146679014e-06,5.299236363498494e-06,-2.999974250793457,-0.03599131107330322,-9.340126991271973
780288059000,-2.486882294761017e-05,9.147795935859904e-06,5.370311100705294e-06,-2.9999828338623047,-0.036059021949768066,-9.34007453918457
780295089000,9.78887765086256e-05,5.8704259572550654e-05,-9.585624866303988e-06,-3.0000853538513184,-0.03704977035522461,-9.339632987976074
780301982000,-1.4161591025185771e-05,-2.131728979293257e-05,5.398032499215333e-06,-3.000227451324463,-0.0351639986038208,-9.33988094329834
780308881000,-2.7943293389398605e-05,-9.710849553812295e-06,5.225539553066483e-06,-2.9999778270721436,-0.03595077991485596,-9.340143203735352
780322750000,-1.596123183844611e-05,2.3114414943847805e-05,3.707281848619459e-06,-2.9999399185180664,-0.036104559898376465,-9.33996868133545
780329856000,9.378699905937538e-05,6.287208816502243e-05,-9.724091796670109e-06,-3.000157594680786,-0.036961913108825684,-9.33969497680664
780336664000,-1.917499139381107e-05,-2.0081302864127792e-05,5.2350292207847815e-06,-3.000243663787842,-0.03515589237213135,-9.339860916137695
780343583000,-1.88951707968954e-05,-6.829832273069769e-06,5.532213435799349e-06,-2.999993324279785,-0.03604888916015625,-9.340083122253418
780357482000,9.050557855516672e-05,4.873497164226137e-05,-9.945830242941156e-06,-3.000089645385742,-0.036962270736694336,-9.339652061462402
780364451000,-1.3138802387402393e-05,-2.440461321384646e-05,5.347495516616618e-06,-3.0002050399780273,-0.03522956371307373,-9.339896202087402
780371357000,-3.054494663956575e-05,-1.4972934877732769e-05,5.01725389767671e-06,-2.9999842643737793,-0.03593266010284424,-9.340136528015137
780378317000,-2.8386481062625535e-05,4.769390216097236e-07,5.203347882343223e-06,-2.999981164932251,-0.03606903553009033,-9.340081214904785
780385275000,9.681035589892417e-05,5.255152427707799e-05,-9.763254638528451e-06,-3.0000720024108887,-0.03707718849182129,-9.339627265930176
780399232000,-2.573532037786208e-05,-1.0995596312568523e-05,5.131674242875306e-06,-2.9999799728393555,-0.03598201274871826,-9.340123176574707
780406183000,-2.8008464141748846e-05,1.9866274669766426e-06,5.1700026233447716e-06,-2.9999866485595703,-0.03604733943939209,-9.340073585510254
780413080000,8.693101699464023e-05,4.7603938583051786e-05,-8.057681043283083e-06,-3.0001344680786133,-0.03699028491973877,-9.339728355407715
780420030000,-1.5679093849030323e-05,-1.8548884327174164e-05,5.358291673474014e-06,-3.000126838684082,-0.035228610038757324,-9.339879035949707
780433933000,-2.4003864382393658e-05,5.030307875131257e-06,5.3744465731142554e-06,-3.0000040531158447,-0.036043405532836914,-9.340070724487305
780440864000,9.250364382751286e-05,5.178423452889547e-05,-9.848140507529024e-06,-3.000088691711426,-0.037015676498413086,-9.339631080627441
780447805000,-1.5161489500314929e-05,-2.428000334475655e-05,5.292417881719302e-06,-3.000213146209717,-0.03519630432128906,-9.339893341064453
780454717000,-2.343211235711351e-05,-1.2532535038189963e-05,5.227308975008782e-06,-2.9999852180480957,-0.035997867584228516,-9.340103149414062
780461715000,-2.5864570488920435e-05,-3.7185600376687944e-07,5.226075700193178e-06,-2.999990940093994,-0.03604555130004883,-9.340068817138672
780475525000,-1.5415962479892187e-05,-1.814334791561123e-05,5.413064172898885e-06,-3.0001072883605957,-0.03528475761413574,-9.339889526367188
780482518000,-2.4195587684516795e-05,-7.504795576096512e-06,5.280967343423981e-06,-2.9999895095825195,-0.0359957218170166,-9.340095520019531
780489434000,-2.4786202629911713e-05,4.275754690752365e-06,5.346934813132975e-06,-2.999997138977051,-0.036058783531188965,-9.34005355834961
780503331000,-1.383149174216669e-05,-2.788519486784935e-05,5.30171200807672e-06,-3.000225067138672,-0.03516840934753418,-9.33987808227539
780510247000,-2.421495628368575e-05,-1.6729514754842967e-05,5.166296432435047e-06,-2.9999852180480957,-0.03598189353942871,-9.340112686157227
780517300000,-2.510305967007298e-05,-3.6411565815797076e-06,5.1349561545066535e-06,-2.999985694885254,-0.03606295585632324,-9.340057373046875
780524167000,-2.7882113499799743e-05,7.4274721555411816e-06,5.280572167976061e-06,-2.999999523162842,-0.036025404930114746,-9.34007740020752
780531191000,9.412849612999707e-05,5.573804082814604e-05,-9.806235539144836e-06,-3.000088691711426,-0.03706049919128418,-9.33961009979248
780544995000,-2.8109630875405855e-05,-1.3349002983886749e-05,5.058249826106476e-06,-2.9999890327453613,-0.03595709800720215,-9.340108871459961
780552008000,9.05251654330641e-05,3.289408778073266e-05,-8.044123205763754e-06,-3.000138282775879,-0.03702044486999512,-9.33971118927002
780558895000,-2.617184873088263e-05,-3.66625317838043e-05,4.854509370488813e-06,-3.0001206398010254,-0.03514456748962402,-9.339911460876465
780565873000,-2.7537276764633134e-05,-1.9377506760065444e-05,5.054192115494516e-06,-2.9999661445617676,-0.03603947162628174,-9.34012508392334
780579809000,8.984869054984301e-05,4.246806201990694e-05,-8.035967766772956e-06,-3.0001344680786133,-0.03697633743286133,-9.339738845825195
780586677000,-2.442464574414771e-05,-2.5047495000762865e-05,5.077954483567737e-06,-3.0001158714294434,-0.03514683246612549,-9.339932441711426
780593596000,-2.6388383048470132e-05,-9.572859198669903e-06,5.101182068756316e-06,-2.999972343444824,-0.036051273345947266,-9.340093612670898
780600641000,-2.883422166632954e-05,2.8558933991007507e-06,5.1658171287272125e-06,-2.999990940093994,-0.03603470325469971,-9.340079307556152
780607485000,-1.036739195114933e-05,2.185562698286958e-05,3.824790383077925e-06,-2.9999470710754395,-0.03619992733001709,-9.339921951293945
780621406000,-1.8494241885491647e-05,-2.719635631365236e-05,5.1377478484937456e-06,-3.0002501010894775,-0.0351637601852417,-9.33984088897705
780628349000,-2.699845026654657e-05,-1.679291199252475e-05,5.0746011766023e-06,-2.999992847442627,-0.03599536418914795,-9.340095520019531
780635315000,-2.062534804281313e-05,-3.4828026400646195e-06,5.339434210327454e-06,-2.999999523162842,-0.03610718250274658,-9.340028762817383
780642216000,8.484802674502134e-05,3.7191930459812284e-05,-8.209216503018979e-06,-3.0001449584960938,-0.036928534507751465,-9.339729309082031
780649204000,-1.8844366422854364e-05,-2.8288450266700238e-05,5.176171725906897e-06,-3.0001220703125,-0.03522169589996338,-9.339890480041504
780663121000,-3.431176446611062e-05,-5.436249921331182e-06,4.953923507855507e-06,-2.9999916553497314,-0.03596770763397217,-9.340105056762695
780670035000,9.267599671147764e-05,4.4275555410422385e-05,-7.83986433816608e-06,-3.0001325607299805,-0.037073493003845215,-9.339702606201172
780676948000,-1.3936974937678315e-05,-2.4980530724860728e-05,5.277424861560576e-06,-3.0001344680786133,-0.03521835803985596,-9.339848518371582
780683925000,-2.778448470053263e-05,-1.526746927993372e-05,5.023821358918212e-06,-2.9999876022338867,-0.035951972007751465,-9.340124130249023
780697907000,9.311745088780299e-05,4.401264959597029e-05,-7.839791578589939e-06,-3.0001418590545654,-0.03702270984649658,-9.33970832824707
780704832000,1.0412192750663962e-05,-8.383527529076673e-06,9.136906555795576e-07,-2.999983310699463,-0.03562057018280029,-9.33949089050293
780711743000,-3.365113661857322e-05,-4.5276938180904835e-05,8.338805855601095e-06,-3.000431537628174,-0.03533327579498291,-9.340630531311035
780718769000,-2.8468866730690934e-05,-1.217606222780887e-05,5.153457550477469e-06,-2.9997525215148926,-0.03626871109008789,-9.339837074279785
780725648000,8.123173756757751e-05,3.4257252991665155e-05,-8.272741979453713e-06,-3.000119209289551,-0.03695118427276611,-9.339762687683105
780739624000,-3.2046198612079024e-05,-1.2711010640487075e-05,4.911641553917434e-06,-2.9999828338623047,-0.03592371940612793,-9.340137481689453
780746582000,-2.837093416019343e-05,2.2952008293941617e-06,5.222635081736371e-06,-2.9999876022338867,-0.036078810691833496,-9.340072631835938
780753499000,9.634640446165577e-05,5.194983532419428e-05,-9.768413292476907e-06,-3.0000851154327393,-0.03707313537597656,-9.339609146118164
780760457000,-1.598169910721481e-05,-2.773231790342834e-05,5.240532118477859e-06,-3.0002264976501465,-0.0351564884185791,-9.339892387390137
780774255000,-2.7261061404715292e-05,-3.220135113224387e-06,5.059593604528345e-06,-2.9999845027923584,-0.036064863204956055,-9.340058326721191
780781319000,8.711835107533261e-05,4.110881855012849e-05,-8.108425390673801e-06,-3.000140905380249,-0.03698551654815674,-9.339722633361816
780788156000,-1.6193776900763623e-05,-2.615524317661766e-05,5.224308551987633e-06,-3.0001323223114014,-0.03522360324859619,-9.339871406555176
780795082000,-2.5585581170162186e-05,-1.483856794948224e-05,5.161018634680659e-06,-2.999985694885254,-0.035991549491882324,-9.340105056762695
780802078000,-2.796243097691331e-05,-2.9603634175146e-06,5.127365056978306e-06,-2.9999918937683105,-0.03604781627655029,-9.340062141418457
780816049000,-1.5460387658094987e-05,-2.5669516617199406e-05,5.284233338898048e-06,-3.0001344680786133,-0.035228729248046875,-9.339863777160645
780822868000,-2.5504657969577238e-05,-1.4867397112539038e-05,5.1194874686189e-06,-2.9999871253967285,-0.03598606586456299,-9.340105056762695
780829881000,-2.7993561161565594e-05,-3.109760655206628e-06,5.122289621795062e-06,-2.999993324279785,-0.036046624183654785,-9.34006118774414
780836764000,8.710041583981365e-05,4.137684663874097e-05,-8.056747901719064e-06,-3.000141143798828,-0.03699028491973877,-9.339719772338867
780843684000,-1.520732621429488e-05,-2.5562148948665708e-05,5.296440576785244e-06,-3.0001304149627686,-0.03523409366607666,-9.339863777160645
780857607000,-3.258615470258519e-05,-4.372270268504508e-06,5.005929779144935e-06,-2.9999921321868896,-0.036003708839416504,-9.340084075927734
780864632000,9.457581472815946e-05,4.379180973046459e-05,-7.790893505443819e-06,-3.0001418590545654,-0.03707432746887207,-9.33968734741211
780871479000,-1.0531315638218075e-05,-2.7264177333563566e-05,5.366150617192034e-06,-3.0001473426818848,-0.03522992134094238,-9.339823722839355
780878462000,-3.3817123039625585e-05,-2.0094088540645316e-05,4.7733842620800715e-06,-2.999983787536621,-0.03589272499084473,-9.340144157409668
780885438000,-2.8013244445901364e-05,-4.585319402394816e-06,5.103007879370125e-06,-2.9999876022338867,-0.036098599433898926,-9.340058326721191
780899400000,-1.6280810086755082e-05,-2.5619810912758112e-05,5.265847903501708e-06,-3.000126600265503,-0.03522014617919922,-9.339881896972656
780906197000,-2.562900226621423e-05,-1.4347320757224225e-05,5.141767360328231e-06,-2.999986171722412,-0.03599131107330322,-9.340105056762695
780913247000,-2.8029307941324078e-05,-2.4992004910018295e-06,5.13141458213795e-06,-2.999992847442627,-0.036047935485839844,-9.340062141418457
780920099000,8.711811096873134e-05,4.188374077784829e-05,-8.080041880020872e-06,-3.0001420974731445,-0.03699076175689697,-9.339716911315918
780934155000,-2.4812654373818077e-05,-1.4814340829616413e-05,5.131771104061045e-06,-2.999988555908203,-0.03598976135253906,-9.340100288391113
780940915000,-3.25797991536092e-05,-4.521214577835053e-06,5.020114258513786e-06,-2.9999921321868896,-0.0360027551651001,-9.340084075927734
780947955000,9.46163636399433e-05,4.35389592894353e-05,-7.771638593112584e-06,-3.0001425743103027,-0.03707444667816162,-9.339686393737793
780954816000,-1.0282330549671315e-05,-2.7574118576012552e-05,5.349976618163055e-06,-3.0001473426818848,-0.0352325439453125,-9.339820861816406
780961745000,-3.418494088691659e-05,-2.1231098799034953e-05,4.755060217576101e-06,-2.999988079071045,-0.035887718200683594,-9.340141296386719
780975651000,8.747474930714816e-05,4.008486575912684e-05,-8.109393093036488e-06,-3.0001344680786133,-0.036994338035583496,-9.339722633361816
780982720000,-1.5467701814486645e-05,-2.5818628273555078e-05,5.2558571042027324e-06,-3.0001254081726074,-0.03522849082946777,-9.33988094329834
780989605000,-2.6572328351903707e-05,-1.5029303540359251e-05,5.103080638946267e-06,-2.999985694885254,-0.03597712516784668,-9.34011173248291
780996586000,-2.7938913262914866e-05,-2.5577173801138997e-06,5.118256012792699e-06,-2.9999899864196777,-0.0360567569732666,-9.340059280395508
781010369000,-1.536855415906757e-05,-2.5847235519904643e-05,5.271073405310744e-06,-3.000136375427246,-0.03522956371307373,-9.339860916137695
781017406000,-2.49225486186333e-05,-1.5113712834136095e-05,5.168225470697507e-06,-2.9999892711639404,-0.035988807678222656,-9.340102195739746
781024264000,-2.7897411200683564e-05,-3.6450819607125595e-06,5.109124685986899e-06,-2.999993085861206,-0.03604447841644287,-9.340060234069824
781031276000,8.815650653559715e-05,4.0987222746480256e-05,-8.097094905679114e-06,-3.000141143798828,-0.036997437477111816,-9.339712142944336
781045112000,-2.58860982285114e-05,-1.7226555428351276e-05,5.110257916385308e-06,-3.000000238418579,-0.03595280647277832,-9.34012508392334
781052117000,-3.2420317438663915e-05,-5.979711204417981e-06,4.974518560629804e-06,-2.9999890327453613,-0.03601408004760742,-9.340082168579102
781059032000,8.721875929040834e-05,4.0975915908347815e-05,-8.093213182291947e-06,-3.0001344680786133,-0.03702974319458008,-9.33970832824707
781066051000,-1.5464942407561466e-05,-2.5669573005870916e-05,5.270045676297741e-06,-3.000128746032715,-0.03523063659667969,-9.339871406555176
781072888000,-1.9907016394427046e-05,-1.3711975952901412e-05,5.242103725322522e-06,-2.9999897480010986,-0.03603184223175049,-9.34007740020752
781086874000,8.721642370801419e-05,4.11696128139738e-05,-8.093206815829035e-06,-3.000135898590088,-0.037033677101135254,-9.339704513549805
781093714000,-1.542716199764982e-05,-2.607147689559497e-05,5.275112926028669e-06,-3.0001330375671387,-0.03523135185241699,-9.339863777160645
781100713000,-2.489585313014686e-05,-1.5351823094533756e-05,5.144920123711927e-06,-2.999988079071045,-0.03598952293395996,-9.34010124206543
781107601000,-2.786142795230262e-05,-3.897983333445154e-06,5.1141928452125285e-06,-2.999993324279785,-0.03604459762573242,-9.340059280395508
781121527000,-1.5131339750951156e-05,-2.7155771022080444e-05,5.27818610862596e-06,-3.0001351833343506,-0.03522682189941406,-9.339860916137695
781128409000,-2.469444189046044e-05,-1.64223529282026e-05,5.1469642130541615e-06,-2.999988555908203,-0.03598928451538086,-9.340102195739746
781135470000,-2.7890522687812336e-05,-4.971298039890826e-06,5.080729806650197e-06,-2.999993324279785,-0.03604316711425781,-9.34006118774414
781142333000,8.753839938435704e-05,3.9891911001177505e-05,-8.113438525469974e-06,-3.0001392364501953,-0.03699362277984619,-9.339717864990234
781156242000,-2.655032767506782e-05,-1.6474557924084365e-05,5.1172451094316784e-06,-2.9999871253967285,-0.03598213195800781,-9.340108871459961
781163212000,-2.596939157228917e-05,-2.638258592924103e-06,4.814613930648193e-06,-2.9999794960021973,-0.0360867977142334,-9.340035438537598
781170137000,8.235042332671583e-05,3.875632683048025e-05,-8.226863428717479e-06,-3.0001537799835205,-0.036921143531799316,-9.339757919311523
781177039000,-1.569017331348732e-05,-2.459932875353843e-05,5.291304660204332e-06,-3.000119209289551,-0.03526914119720459,-9.339871406555176
781184049000,-2.4878572730813175e-05,-1.4055121937417425e-05,5.150011929799803e-06,-2.9999895095825195,-0.03599202632904053,-9.340096473693848
781197963000,9.5802141004242e-05,4.294227619539015e-05,-7.805889254086651e-06,-3.000147819519043,-0.03704476356506348,-9.339688301086426
781204857000,-1.7040394595824182e-05,-3.136634040856734e-05,5.218998012423981e-06,-3.000154733657837,-0.035164833068847656,-9.339851379394531
781211815000,-3.390734491404146e-05,-2.118304109899327e-05,4.743963017972419e-06,-2.999976396560669,-0.03594696521759033,-9.340126991271973
781218788000,-2.775442771962844e-05,-4.954752512276173e-06,5.115206931805005e-06,-2.9999852180480957,-0.03610038757324219,-9.340063095092773
781225683000,8.7858279584907e-05,4.029812407679856e-05,-8.076895028352737e-06,-3.0001373291015625,-0.036995649337768555,-9.339719772338867
781239553000,-1.996526407310739e-05,-1.3966016013000626e-05,5.246142791293096e-06,-2.9999895095825195,-0.03603172302246094,-9.340080261230469
781246544000,-3.215410833945498e-05,-5.36550214746967e-06,4.949243702867534e-06,-2.9999938011169434,-0.03596973419189453,-9.340091705322266
781253487000,8.748578693484887e-05,4.1143062844639644e-05,-8.13267888588598e-06,-3.0001378059387207,-0.03702700138092041,-9.33970832824707
781260390000,-1.5482168237213045e-05,-2.659372148627881e-05,5.279146535031032e-06,-3.000135660171509,-0.03522777557373047,-9.339864730834961
781274302000,-2.7950023650191724e-05,-3.988467142335139e-06,5.127348686073674e-06,-2.999990940093994,-0.036057353019714355,-9.340058326721191
781281292000,8.749522385187447e-05,4.074081516591832e-05,-8.118498953990638e-06,-3.0001397132873535,-0.03699469566345215,-9.339715957641602
781288283000,-1.5427103789988905e-05,-2.6831490686163306e-05,5.246726232144283e-06,-3.000133752822876,-0.035230398178100586,-9.339863777160645
781295114000,-2.2280335542745888e-05,-1.3576681340055075e-05,4.485753834160278e-06,-2.999965190887451,-0.03604137897491455,-9.340055465698242
781302135000,-3.256300988141447e-05,-6.204965757206082e-06,4.9116638365376275e-06,-3.000016450881958,-0.03595578670501709,-9.340118408203125
781315997000,-1.0644051144481637e-05,-2.3003496607998386e-05,5.370258804759942e-06,-3.0001182556152344,-0.03531384468078613,-9.339845657348633
781322906000,-2.5058283426915295e-05,-1.5160053408180829e-05,5.133747436047997e-06,-2.99999737739563,-0.035947322845458984,-9.340110778808594
781329915000,-3.2636246032780036e-05,-4.924257154925726e-06,5.024150596000254e-06,-2.9999938011169434,-0.036005258560180664,-9.340082168579102
781336840000,9.465120820095763e-05,4.300289219827391e-05,-7.780760824971367e-06,-3.000143051147461,-0.03707587718963623,-9.339683532714844
781343719000,-1.6050213162088767e-05,-2.986416802741587e-05,5.239468009676784e-06,-3.0001487731933594,-0.03518259525299072,-9.339847564697266
781357658000,-2.7106207198812626e-05,-5.513213181984611e-06,5.065659934189171e-06,-2.999985694885254,-0.0360640287399292,-9.340060234069824
781364733000,8.61948064994067e-05,3.878782445099205e-05,-8.147138032654766e-06,-3.0001392364501953,-0.03697347640991211,-9.339729309082031
781371512000,-4.592655386659317e-06,-2.181277704949025e-05,4.470528438105248e-06,-3.0000946521759033,-0.03537189960479736,-9.339773178100586
781378467000,-4.0381375583820045e-05,-2.3109054382075556e-05,4.592802724801004e-06,-3.0000314712524414,-0.03574514389038086,-9.340224266052246
781392370000,9.531507384963334e-05,4.3413270759629086e-05,-7.745169568806887e-06,-3.000138759613037,-0.0370790958404541,-9.339689254760742
781399359000,-1.2952030374435708e-05,-2.6101206458406523e-05,4.793218977283686e-06,-3.0001230239868164,-0.03522646427154541,-9.339820861816406
781406261000,-2.589263385743834e-05,-1.819527824409306e-05,5.053494078310905e-06,-3.0000083446502686,-0.03594005107879639,-9.340133666992188
781413312000,-3.2261064916383475e-05,-6.663291060249321e-06,4.9573086471355055e-06,-2.9999876022338867,-0.03601682186126709,-9.340084075927734
781427095000,-1.624075048312079e-05,-2.6587975298753008e-05,5.256718395685311e-06,-3.000129222869873,-0.03522145748138428,-9.33987808227539
781434070000,-2.6630450520315208e-05,-1.567080289532896e-05,5.092925675853621e-06,-2.9999868869781494,-0.035982728004455566,-9.340108871459961
781440999000,-2.8060203476343304e-05,-3.4235108614666387e-06,5.097952907817671e-06,-2.999990940093994,-0.0360565185546875,-9.340058326721191
781447994000,8.746018284000456e-05,4.1291779780294746e-05,-8.109374903142452e-06,-3.0001397132873535,-0.036994218826293945,-9.339715003967285
781454886000,-1.2433007213985547e-05,-2.4604716600151733e-05,4.808538051292999e-06,-3.000120162963867,-0.03527390956878662,-9.339824676513672
781468804000,-2.755432069534436e-05,-3.566427039913833e-06,5.108173809276195e-06,-2.9999828338623047,-0.0361027717590332,-9.340045928955078
781475702000,8.73780736583285e-05,4.0664890548214316e-05,-8.096229066723026e-06,-3.0001416206359863,-0.03698909282684326,-9.339716911315918
781482738000,-1.544983751955442e-05,-2.6921179596683942e-05,5.270027031656355e-06,-3.0001344680786133,-0.035230398178100586,-9.339862823486328
781489602000,-2.5455366994719952e-05,-1.6222904378082603e-05,5.1245388021925464e-06,-2.999988317489624,-0.03598594665527344,-9.340104103088379
781496585000,-2.798031346173957e-05,-4.58492104371544e-06,5.108080131321913e-06,-2.999992847442627,-0.03604745864868164,-9.340060234069824
781510417000,-1.620578404981643e-05,-2.751149258983787e-05,5.233402589510661e-06,-3.000133514404297,-0.03522181510925293,-9.33987045288086
781517439000,-2.5554934836691245e-05,-1.6537056581000797e-05,5.095129381516017e-06,-2.9999876022338867,-0.03599119186401367,-9.340103149414062
781524369000,-2.8045096769346856e-05,-4.675115633290261e-06,5.097933353681583e-06,-2.9999923706054688,-0.03604733943939209,-9.34006118774414
781531321000,8.77931306604296e-05,4.023772999062203e-05,-8.087041351245716e-06,-3.000138759613037,-0.03699779510498047,-9.339715957641602
781538211000,-1.547425563330762e-05,-2.7249325285083614e-05,5.2791360758419614e-06,-3.000133514404297,-0.035225629806518555,-9.33986759185791
781552168000,-2.724985097302124e-05,-3.771383489947766e-06,5.073772626928985e-06,-2.9999866485595703,-0.03606522083282471,-9.340056419372559
781559106000,8.78753635333851e-05,4.047716356581077e-05,-8.114382580970414e-06,-3.000143051147461,-0.036989688873291016,-9.339716911315918
781566104000,-1.5471199731109664e-05,-2.7502625016495585e-05,5.279132437863154e-06,-3.000136375427246,-0.0352247953414917,-9.339866638183594
781572939000,-2.9602941140183248e-05,-1.7494941857876256e-05,4.833967977901921e-06,-2.999981641769409,-0.035971879959106445,-9.34010124206543
781586843000,9.334525384474546e-05,4.450718188309111e-05,-8.963499567471445e-06,-3.0001039505004883,-0.037085533142089844,-9.339641571044922
781593823000,-2.2346714104060084e-05,-3.3233554859180003e-05,5.09946039528586e-06,-3.0001916885375977,-0.03507888317108154,-9.33993148803711
781600765000,-3.0704592063557357e-05,-1.971377423615195e-05,5.0242333600181155e-06,-2.9999759197235107,-0.03599905967712402,-9.340120315551758
781607668000,-2.7581672839005478e-05,-4.028728653793223e-06,5.1030942813667934e-06,-2.999979019165039,-0.036095261573791504,-9.340057373046875
781614686000,9.583069186192006e-05,4.2927720642182976e-05,-7.81500420998782e-06,-3.000141143798828,-0.03704345226287842,-9.339699745178223
781628523000,-3.3861444535432383e-05,-1.9528337361407466e-05,4.754133442474995e-06,-2.99997615814209,-0.035938262939453125,-9.340131759643555
781635505000,-2.7824418793898076e-05,-3.4802742447936907e-06,5.14764587933314e-06,-2.999986171722412,-0.03609967231750488,-9.34006404876709
781642393000,8.74011020641774e-05,4.1484796383883804e-05,-8.091143172350712e-06,-3.0001378059387207,-0.03699290752410889,-9.339720726013184
781649370000,-1.5493678802158684e-05,-2.5640116291469894e-05,5.279161541693611e-06,-3.000131130218506,-0.03522896766662598,-9.339866638183594
781663295000,-2.6782827262650244e-05,-1.3515673344954848e-06,4.084908141521737e-06,-2.999962329864502,-0.0360560417175293,-9.340019226074219
781670219000,7.635095244040713e-05,3.655290129245259e-05,-8.372877346118912e-06,-3.0001790523529053,-0.03684687614440918,-9.339815139770508
781677138000,-1.5928773791529238e-05,-2.326100911886897e-05,5.378430159908021e-06,-3.000109910964966,-0.03531455993652344,-9.339869499206543
781684131000,-2.3407941625919193e-05,-1.2562049050757196e-05,5.204006811254658e-06,-2.9999897480010986,-0.03600656986236572,-9.340083122253418
781698054000,9.091870742850006e-05,4.498460111790337e-05,-9.97014285530895e-06,-3.0000863075256348,-0.03702044486999512,-9.339627265930176
781704920000,-9.148703611572273e-06,-2.9393415388767608e-05,5.3998001021682285e-06,-3.0002169609069824,-0.035247087478637695,-9.33986759185791
781711847000,-3.1303086871048436e-05,-2.264183603983838e-05,4.805201569979545e-06,-2.999988555908203,-0.03590059280395508,-9.340132713317871
781718844000,-2.4781587853794917e-05,-7.2287202783627436e-06,5.123804385220865e-06,-2.999988555908203,-0.03610646724700928,-9.34005069732666
781732717000,9.471712110098451e-05,5.193017568672076e-05,-9.871049769571982e-06,-3.0000925064086914,-0.037073493003845215,-9.339608192443848
781739642000,-1.4924533388693817e-05,-2.754073284449987e-05,5.322802280716132e-06,-3.0002329349517822,-0.03517258167266846,-9.339887619018555
781746653000,-2.8092090360587463e-05,-1.7908878362504765e-05,5.038919425714994e-06,-2.9999871253967285,-0.03596377372741699,-9.340107917785645
781753548000,8.260094909928739e-05,2.67332507064566e-05,-8.38612140796613e-06,-3.0001306533813477,-0.03697323799133301,-9.339731216430664
781760472000,-1.8454837118042633e-05,-3.5541139368433505e-05,5.141660494700773e-06,-3.0001096725463867,-0.03523850440979004,-9.339909553527832
781774410000,-2.392515671090223e-05,-4.804218406206928e-06,5.152372068550903e-06,-2.9999754428863525,-0.03613007068634033,-9.340063095092773
781781484000,8.264235657406971e-05,3.8834361475892365e-05,-8.28963311505504e-06,-3.000131368637085,-0.036933302879333496,-9.33975601196289
781788288000,-1.759990118443966e-05,-2.3296079234569333e-05,5.242346560407896e-06,-3.0001096725463867,-0.03524649143218994,-9.339903831481934
781795219000,-2.621319072204642e-05,-1.1955105946981348e-05,5.069759936304763e-06,-2.9999852180480957,-0.035997629165649414,-9.34009838104248
