sim_time_ns,gyro_x,gyro_y,gyro_z,accel_x,accel_y,accel_z
730621521000,0.00022797338897362351,0.0007642928976565599,-0.0036827288568019867,-0.7843776941299438,0.09056875109672546,-9.768860816955566
730628427000,-0.0009957854636013508,-0.0002448783488944173,0.0023577450774610043,-0.7679171562194824,-0.09097573161125183,-9.777833938598633
730635341000,0.0010824943892657757,0.002208882011473179,-0.0005766087560914457,-0.759053111076355,0.037685543298721313,-9.79752254486084
730649216000,1.2116186553612351e-05,0.00025892286794260144,-0.003835248528048396,-0.7936493754386902,0.1075604259967804,-9.780718803405762
730656210000,-0.0008783990051597357,-0.0009285765700042248,0.0025286246091127396,-0.7673685550689697,-0.09798002243041992,-9.779858589172363
730663088000,0.0009649193380028009,0.0015608350513502955,-0.0007716243271715939,-0.7618094682693481,0.045129865407943726,-9.798585891723633
730670087000,-0.0003299565287306905,0.0011230935342609882,-0.0009476677514612675,-0.7833079099655151,0.011017680168151855,-9.789512634277344
730676990000,-6.40074722468853e-05,-0.001280678203329444,0.0025326255708932877,-0.7949392795562744,-0.06105536222457886,-9.763415336608887
730690908000,-0.0010363268665969372,-0.0013910980196669698,0.002364738378673792,-0.7672179937362671,-0.09040820598602295,-9.775346755981445
730697983000,0.001066003693267703,0.0015029906062409282,-0.0005735085578635335,-0.7566853761672974,0.03759598731994629,-9.791807174682617
730704895000,-0.0002445693826302886,0.0012293332256376743,-0.0009382920688949525,-0.7834107875823975,0.01410791277885437,-9.788421630859375
730711811000,-0.00010027142707258463,-0.0011759044136852026,0.0025389238726347685,-0.794985294342041,-0.06021547317504883,-9.76208209991455
730725667000,-0.0010174914496019483,-0.0012007765471935272,0.0023593755904585123,-0.7674814462661743,-0.09044653177261353,-9.775825500488281
730732518000,0.0010711238719522953,0.0015209342818707228,-0.000576171325519681,-0.7575219869613647,0.037636399269104004,-9.791966438293457
730739536000,-0.00024096027482300997,0.001330066006630659,-0.0009358267416246235,-0.7829571962356567,0.014030516147613525,-9.789371490478516
730746431000,-0.00012555357534438372,-0.0011304933577775955,0.002542499452829361,-0.7952330708503723,-0.06006669998168945,-9.762176513671875
730760402000,-0.0010227999882772565,-0.0012579989852383733,0.0023563080467283726,-0.7681766748428345,-0.09032246470451355,-9.776203155517578
730767250000,0.0010650677140802145,0.0015035286778584123,-0.000575255777221173,-0.7572899460792542,0.037572264671325684,-9.792549133300781
730774274000,-8.343206718564034e-05,0.001168641960248351,-0.0007337876595556736,-0.782221257686615,0.009706109762191772,-9.78846263885498
730781164000,-6.769085302948952e-05,-0.0011718419846147299,0.0025711345952004194,-0.7959669828414917,-0.056487977504730225,-9.762441635131836
730795071000,-0.001070123864337802,-0.00131797487847507,0.002368408953770995,-0.7683451771736145,-0.09026730060577393,-9.775291442871094
730801982000,0.0010700691491365433,0.001482608960941434,-0.0005756961181759834,-0.757046103477478,0.03747996687889099,-9.791693687438965
730808953000,-2.5846180506050587e-05,0.0012681980151683092,-0.0007396608707495034,-0.7815983295440674,0.009488791227340698,-9.78943157196045
730815883000,-3.642379306256771e-05,-0.0011234936537221074,0.0025680349208414555,-0.7961879968643188,-0.05638059973716736,-9.762463569641113
730822869000,0.00017622874293010682,-0.0003322605334687978,-0.0036568855866789818,-0.7893564701080322,0.09866651892662048,-9.776650428771973
730836756000,0.0002289674594067037,0.0003765626752283424,-0.0036821579560637474,-0.7851825952529907,0.0904054045677185,-9.770309448242188
730843656000,-0.001041492447257042,-0.0005879678064957261,0.002368191722780466,-0.7676467299461365,-0.09086951613426208,-9.777140617370605
730850577000,0.001311162835918367,0.00020138639956712723,0.0030775743070989847,-0.7732527852058411,-0.02373826503753662,-9.773059844970703
730857589000,0.00022837391588836908,0.0006843713345006108,-0.00359233096241951,-0.7916722297668457,0.11187216639518738,-9.782593727111816
730871536000,0.0010283272713422775,0.001834204071201384,-0.0005767535767517984,-0.7608168125152588,0.037656545639038086,-9.799863815307617
730878370000,-0.00024401559494435787,0.0014809846179559827,-0.0009434236562810838,-0.7841479778289795,0.013914436101913452,-9.791142463684082
730885325000,-0.0003243866958655417,0.0008896977524273098,-0.0009831645293161273,-0.7827490568161011,0.0011986494064331055,-9.787592887878418
730892333000,0.0001235057134181261,-0.0017235417617484927,0.0027324475813657045,-0.7941588163375854,-0.06625795364379883,-9.76313304901123
730899198000,0.00011001882376149297,-0.0008417147910222411,-0.003850914305076003,-0.7915449142456055,0.10597768425941467,-9.774974822998047
730913100000,0.0009818103862926364,0.0014639170840382576,-0.0007696578977629542,-0.7584172487258911,0.04518932104110718,-9.790148735046387
730920163000,-0.00030191807309165597,0.0012212845031172037,-0.0009531498071737587,-0.7821012139320374,0.011184781789779663,-9.788501739501953
730927055000,0.00012631050776690245,-0.0012161268386989832,0.00273411488160491,-0.7935693264007568,-0.06547722220420837,-9.761795043945312
730933986000,0.00030841329135000706,-0.00038027207483537495,-0.003648869227617979,-0.7903447151184082,0.1015024483203888,-9.774433135986328
730947870000,0.0010626508155837655,0.0015426204772666097,-0.0005751723074354231,-0.7574654817581177,0.03775787353515625,-9.791935920715332
730954868000,-0.000239783083088696,0.0013451478444039822,-0.0009360178955830634,-0.7830322980880737,0.013999074697494507,-9.789379119873047
730961844000,-0.0001393159618601203,-0.001139436848461628,0.002548790769651532,-0.7953528165817261,-0.06008327007293701,-9.762032508850098
730968710000,0.00019973007147200406,-0.00029697103309445083,-0.003659391775727272,-0.7892992496490479,0.09776929020881653,-9.776298522949219
730975668000,-0.001025182893499732,-0.0012424946762621403,0.00236130622215569,-0.7681723833084106,-0.09041061997413635,-9.776333808898926
730989527000,-0.0002120143035426736,0.0013031339040026069,-0.0009394481312483549,-0.7828896641731262,0.013930261135101318,-9.78951644897461
730996489000,-8.187838830053806e-05,-0.0011520565021783113,0.002540568821132183,-0.795208215713501,-0.06017610430717468,-9.762288093566895
731003725000,0.00019383738981559873,-0.0004141549579799175,-0.0036591007374227047,-0.7896904349327087,0.09769228100776672,-9.775455474853516
731010359000,-0.0010098189814016223,-0.001239690463989973,0.0023473785258829594,-0.7675313353538513,-0.09028831124305725,-9.776179313659668
731024304000,0.0002178059658035636,-0.000693785201292485,0.0027952820528298616,-0.7956748604774475,-0.05168670415878296,-9.765961647033691
731031218000,2.2295178496278822e-05,-1.871207496151328e-05,-0.003836474847048521,-0.7923163175582886,0.1074792742729187,-9.776771545410156
731038254000,-0.0009497746359556913,-0.0011365044629201293,0.0025387341156601906,-0.7667537927627563,-0.0976930558681488,-9.776945114135742
731045088000,0.0009611389832571149,0.0017626616172492504,-0.0007680448470637202,-0.7594520449638367,0.04485422372817993,-9.795164108276367
731052022000,-0.00030837953090667725,0.001365820993669331,-0.0009548250236548483,-0.7829245328903198,0.011139541864395142,-9.789077758789062
731065990000,-4.074815660715103e-05,-0.0016109994612634182,0.002564700087532401,-0.7956134080886841,-0.05795666575431824,-9.762537002563477
731072926000,0.00022988789714872837,-0.0006700283847749233,-0.003657394088804722,-0.7885204553604126,0.09831804037094116,-9.774455070495605
731079808000,-0.0010461878264322877,-0.0014548145700246096,0.0023678173311054707,-0.7670932412147522,-0.09015035629272461,-9.77358627319336
731086918000,0.0010651653865352273,0.0014653762336820364,-0.0005703181959688663,-0.7562969923019409,0.037543654441833496,-9.79018783569336
731093739000,0.00021688081324100494,-0.0006763806450180709,0.00280662695877254,-0.7953358888626099,-0.051837027072906494,-9.765658378601074
731107630000,-0.0009364733705297112,-0.0010855395812541246,0.0025391136296093464,-0.7671929597854614,-0.0977763831615448,-9.776617050170898
731114544000,0.00012836215319111943,0.0006459590513259172,-0.0038758516311645508,-0.7877622246742249,0.09780624508857727,-9.773407936096191
731121555000,-0.0008525672019459307,-0.0005597251001745462,0.0025331987999379635,-0.7665814161300659,-0.09850937128067017,-9.778316497802734
731128488000,0.0009940643794834614,0.002020323881879449,-0.0007704660529270768,-0.7612653970718384,0.04517984390258789,-9.797736167907715
731142632000,0.00013268506154417992,9.384151780977845e-05,-0.0036512226797640324,-0.7913625240325928,0.09877938032150269,-9.780118942260742
731149274000,-0.0010323607129976153,-0.000980715500190854,0.0023590491618961096,-0.7692503929138184,-0.09056997299194336,-9.779009819030762
731156288000,0.0010680959094315767,0.0014644234906882048,-0.0005796210025437176,-0.7593575716018677,0.037619709968566895,-9.796093940734863
731163188000,-9.470514487475157e-05,0.0010958024067804217,-0.0007305241888388991,-0.7826904058456421,0.009665489196777344,-9.789255142211914
731170123000,-0.00026177894324064255,0.0007312859524972737,-0.0009629616979509592,-0.7826573848724365,0.0048714280128479,-9.78669548034668
731184013000,0.0011841655941680074,0.0003795438096858561,-0.0005510764895007014,-0.7614947557449341,0.04857134819030762,-9.794591903686523
731191012000,-0.0005104508018121123,0.00027547869831323624,-0.0011272213887423277,-0.7837728261947632,0.020217061042785645,-9.786942481994629
731197869000,-0.00015524961054325104,-0.001946670701727271,0.002512752078473568,-0.7923351526260376,-0.06424838304519653,-9.759597778320312
731204906000,0.00019994701142422855,-0.0005654265405610204,-0.0036613421980291605,-0.7859253883361816,0.09715020656585693,-9.767619132995605
731218714000,0.0002418917720206082,0.0007645351579412818,-0.003686512354761362,-0.7842074632644653,0.09062433242797852,-9.769305229187012
731225669000,-0.0010389081435278058,-0.00034842302557080984,0.0023647965863347054,-0.7683917284011841,-0.09081465005874634,-9.776947975158691
731232600000,0.0010865528602153063,0.002211684826761484,-0.0005761105567216873,-0.7584975957870483,0.03752109408378601,-9.79719066619873
731239611000,0.00016116238839458674,-0.00023121124831959605,0.002817286876961589,-0.7970817685127258,-0.051659077405929565,-9.766866683959961
731246591000,7.442373316735029e-06,0.00029045232804492116,-0.003834858536720276,-0.7934053540229797,0.10758095979690552,-9.780954360961914
731260390000,0.0009644618257880211,0.001561490586027503,-0.0007714227540418506,-0.7617729306221008,0.04504883289337158,-9.79840087890625
731267342000,-0.00032046466367319226,0.0011458784574642777,-0.0009502809261903167,-0.7830867171287537,0.011105507612228394,-9.789713859558105
731274295000,0.00012215145397931337,-0.0013461256166920066,0.0027292040176689625,-0.7939333915710449,-0.06543418765068054,-9.763137817382812
731281272000,0.00010406807996332645,-0.0005119217094033957,-0.003851157147437334,-0.7917883396148682,0.10593688488006592,-9.776508331298828
731295110000,0.0009607102256268263,0.0014288111124187708,-0.0007701252470724285,-0.7593042850494385,0.045282214879989624,-9.791131973266602
731302081000,-0.00031766126630827785,0.001194814220070839,-0.0009504170739091933,-0.782001256942749,0.011097997426986694,-9.78865909576416
731309047000,0.0001159644452854991,-0.001231865375302732,0.002732135122641921,-0.7934653759002686,-0.06543430685997009,-9.761961936950684
731315942000,0.0002973742666654289,-0.0004102533566765487,-0.0036482701543718576,-0.790391206741333,0.10146385431289673,-9.774582862854004
731322953000,-0.0010254689259454608,-0.001202446292154491,0.002365135820582509,-0.7676711082458496,-0.08957216143608093,-9.77599048614502
731336808000,-0.0002346228575333953,0.0013368031941354275,-0.0009375153458677232,-0.783038318157196,0.014048933982849121,-9.78928279876709
731343748000,-0.000124635873362422,-0.0011359768686816096,0.0025424519553780556,-0.7952646017074585,-0.06001994013786316,-9.762097358703613
731350674000,0.0002092281065415591,-0.00031091406708583236,-0.003658664645627141,-0.7893093824386597,0.09768283367156982,-9.776280403137207
731357737000,-0.0010207400191575289,-0.001252335263416171,0.002359989797696471,-0.7681041955947876,-0.09034731984138489,-9.7763090133667
731371601000,-0.00027802446857094765,0.0012290256563574076,-0.0009337140363641083,-0.7832549214363098,0.0142173171043396,-9.788599967956543
731378497000,-0.00012748700100928545,-0.001180919585749507,0.002542938804253936,-0.7949086427688599,-0.06024736166000366,-9.7620849609375
731385376000,0.00020323334319982678,-0.00029351114062592387,-0.0036624528001993895,-0.7889490723609924,0.09776866436004639,-9.776036262512207
731392354000,-0.0010041786590591073,-0.0012298008659854531,0.0023575446102768183,-0.7680128812789917,-0.09049734473228455,-9.776107788085938
731399276000,0.0010706260800361633,0.0014953645877540112,-0.0005760339554399252,-0.7574105262756348,0.03767862915992737,-9.792339324951172
731413214000,-6.894359830766916e-05,-0.0011745840311050415,0.0025692451745271683,-0.7960125207901001,-0.05640164017677307,-9.76229476928711
731420137000,0.00020654995751101524,-0.00032676884438842535,-0.003660057205706835,-0.7890702486038208,0.09837749600410461,-9.77626895904541
731427142000,-0.0010892351856455207,-0.0013307356275618076,0.002369760302826762,-0.7682836055755615,-0.09012404084205627,-9.775259017944336
731434031000,0.00021960644517093897,0.00041476686601527035,-0.0036848383024334908,-0.784980058670044,0.09040549397468567,-9.770347595214844
731440993000,-0.0009853476658463478,-0.0005068310420028865,0.002358523430302739,-0.76749187707901,-0.09113991260528564,-9.77782154083252
731455023000,0.00021395680960267782,0.0006769169704057276,-0.00359108648262918,-0.7916655540466309,0.11190685629844666,-9.782696723937988
731461799000,-0.0010396441211923957,-0.00036488723708316684,0.002356170443817973,-0.7702881097793579,-0.08852192759513855,-9.779622077941895
731468715000,0.0010292603401467204,0.0018202564679086208,-0.0005774304736405611,-0.7608129382133484,0.037693917751312256,-9.800103187561035
731475713000,-0.00021059566643089056,0.0014557811664417386,-0.0009457144187763333,-0.7842233180999756,0.013754069805145264,-9.791025161743164
731489654000,0.00016305805183947086,-0.0017343783983960748,0.0027260060887783766,-0.7941141128540039,-0.0663195550441742,-9.763206481933594
731496551000,0.0001251359935849905,-0.0008369425777345896,-0.0038516896311193705,-0.7914199829101562,0.10601601004600525,-9.775229454040527
731503624000,-0.0009132504928857088,-0.0017001631204038858,0.0025444382335990667,-0.765204906463623,-0.09767156839370728,-9.772705078125
731510461000,0.0009734509512782097,0.0014833459863439202,-0.0007654491346329451,-0.7578369379043579,0.04504355788230896,-9.790010452270508
731524349000,-9.018764831125736e-05,-0.0011641581077128649,0.002538391388952732,-0.7946374416351318,-0.060882747173309326,-9.761712074279785
731531261000,0.0001982444227905944,-0.0003143763751722872,-0.0036592537071555853,-0.7891746163368225,0.09790107607841492,-9.774140357971191
731538263000,-0.0010513672605156898,-0.0011710352264344692,0.002366892294958234,-0.7676447629928589,-0.09034717082977295,-9.775322914123535
731545229000,0.0010739732533693314,0.0016761379083618522,-0.0005754063604399562,-0.756951630115509,0.03753471374511719,-9.7930269241333
731552084000,-0.00024113489780575037,0.001366366515867412,-0.000937426055315882,-0.7835961580276489,0.014089316129684448,-9.788922309875488
731565946000,0.0002073682117043063,-0.000322598876664415,-0.00365792796947062,-0.7898604869842529,0.09792515635490417,-9.777144432067871
731572957000,-0.0010656623635441065,-0.0013722667936235666,0.002366853877902031,-0.7686725854873657,-0.09018462896347046,-9.775714874267578
731579864000,0.0010720337741076946,0.0014626954216510057,-0.0005727910902351141,-0.7569503784179688,0.037421584129333496,-9.792133331298828
731586869000,-4.7236913815140724e-05,0.0011764607625082135,-0.0007388204103335738,-0.7820317149162292,0.009659379720687866,-9.788790702819824
731600676000,0.00019801309099420905,-0.0004326309135649353,-0.003657406894490123,-0.7895911931991577,0.09845194220542908,-9.774974822998047
731607702000,-0.001026834361255169,-0.0012199659831821918,0.0023608014453202486,-0.7672978043556213,-0.09034284949302673,-9.776022911071777
731614573000,0.0010712412185966969,0.0015266508562490344,-0.000573290279135108,-0.7573246359825134,0.03755870461463928,-9.792167663574219
731621617000,0.00020957092056050897,-0.0006669656722806394,0.0028096626047044992,-0.7956844568252563,-0.05185458064079285,-9.765923500061035
731628510000,9.517796570435166e-06,7.510209979955107e-05,-0.003833901835605502,-0.7920065522193909,0.10768988728523254,-9.777765274047852
731635477000,-0.0009397724643349648,-0.001133162877522409,0.0025381867308169603,-0.7672803401947021,-0.09777161478996277,-9.776751518249512
731649382000,-0.00032471679151058197,0.0013424515491351485,-0.0009513662080280483,-0.7824275493621826,0.011102259159088135,-9.789490699768066
731656381000,-8.169672219082713e-05,0.0008626399212516844,-0.0007909758132882416,-0.7804005146026611,-0.004093348979949951,-9.7866792678833
731663256000,2.3025786504149437e-06,-0.0015842244029045105,0.0025549528654664755,-0.7958401441574097,-0.057838112115859985,-9.762584686279297
731670203000,0.00020610744832083583,-0.0007797071011736989,-0.003656791988760233,-0.7891696691513062,0.09853044152259827,-9.773715019226074
731684071000,0.0010796296410262585,0.001553356647491455,-0.0005733297439292073,-0.755847692489624,0.037527769804000854,-9.790904998779297
731691227000,0.00015387393068522215,-0.0007327859639190137,0.0028174174949526787,-0.7960150241851807,-0.05160924792289734,-9.764601707458496
731697940000,8.145318133756518e-06,0.00011867277498822659,-0.003832360031083226,-0.791313111782074,0.10748350620269775,-9.776461601257324
731704943000,-0.0008792205480858684,-0.0009797244565561414,0.002527127740904689,-0.7666692733764648,-0.09792652726173401,-9.777599334716797
731718762000,-0.0008392994641326368,-0.0005693768616765738,0.002530907280743122,-0.7666360139846802,-0.09867236018180847,-9.778299331665039
731725841000,0.0010092330630868673,0.0020267050713300705,-0.0007716069230809808,-0.7611854672431946,0.045147985219955444,-9.798160552978516
731732685000,-8.324265945702791e-05,-0.00040551048004999757,0.0025918607134371996,-0.7972933650016785,-0.05014145374298096,-9.766658782958984
731739766000,0.00012801549746654928,9.258858335670084e-05,-0.0036536450497806072,-0.791282057762146,0.09889477491378784,-9.78037166595459
731746569000,-0.001090415520593524,-0.0010810454841703176,0.002367015229538083,-0.7696778178215027,-0.09042471647262573,-9.778031349182129
731760538000,-2.215406857430935e-05,0.0011912495829164982,-0.0007417857414111495,-0.7821566462516785,0.00940638780593872,-9.790221214294434
731767422000,-7.059075869619846e-06,-0.0012005527969449759,0.0025610572192817926,-0.7965286374092102,-0.0564456582069397,-9.763224601745605
731774454000,0.00018808880122378469,-0.0005021324614062905,-0.0036576841957867146,-0.7901079654693604,0.09866577386856079,-9.776476860046387
731781304000,-0.0010362565517425537,-0.0013965782709419727,0.0023618268314749002,-0.768059492111206,-0.09036058187484741,-9.775335311889648
731788262000,0.0010651187039911747,0.0014832578599452972,-0.0005752510041929781,-0.7568662762641907,0.03758391737937927,-9.791994094848633
731802065000,-2.8827344067394733e-05,-0.0011918570380657911,0.002566494047641754,-0.796231746673584,-0.05642139911651611,-9.762198448181152
731809085000,0.0001879659539554268,-0.00039305584505200386,-0.003656648797914386,-0.7894936800003052,0.09861719608306885,-9.775237083435059
731815981000,-0.0010915615130215883,-0.0013095111353322864,0.0023707991931587458,-0.7680684924125671,-0.09017840027809143,-9.77479362487793
731823008000,0.0010785214835777879,0.0015340446261689067,-0.0005766414105892181,-0.7570071220397949,0.0373665988445282,-9.791508674621582
731836831000,-8.789938874542713e-06,-0.0010409916285425425,0.0025612441822886467,-0.7961024045944214,-0.05656728148460388,-9.76304817199707
731843761000,0.0002016581129282713,-0.00033291109139099717,-0.0036548790521919727,-0.7899789810180664,0.09853747487068176,-9.776833534240723
731850670000,-0.0010798199800774455,-0.0013472373830154538,0.0023678236175328493,-0.7685902118682861,-0.090084969997406,-9.775617599487305
731857680000,0.0010631104232743382,0.001500423182733357,-0.0005723625072278082,-0.7569481134414673,0.03740161657333374,-9.792241096496582
731864567000,-7.473735604435205e-05,0.001180386869236827,-0.0007312420639209449,-0.7822314500808716,0.009648501873016357,-9.788481712341309
731878519000,0.00018470911891199648,-0.0003123521455563605,-0.0036555698607116938,-0.7891936302185059,0.09849163889884949,-9.776288032531738
731885391000,-0.0010178611846640706,-0.0012559064198285341,0.0023590836208313704,-0.7682298421859741,-0.09041887521743774,-9.775832176208496
731892411000,0.0010809178929775953,0.0015123496996238828,-0.0005768370465375483,-0.7572978734970093,0.03758081793785095,-9.792431831359863
731899281000,-7.840711623430252e-05,0.001169478171505034,-0.0007349278312176466,-0.7823079824447632,0.009764254093170166,-9.788330078125
731913197000,0.00018960004672408104,-0.0004285199102014303,-0.0036575733684003353,-0.789729118347168,0.09850949048995972,-9.775147438049316
731920237000,-0.001036101602949202,-0.001221340848132968,0.002362264320254326,-0.7673368453979492,-0.09036567807197571,-9.776106834411621
731927094000,0.0010758081916719675,0.0015071030938997865,-0.0005771644064225256,-0.7574782967567444,0.03753930330276489,-9.791966438293457
731934030000,-3.6299112252891064e-05,0.0012645593378692865,-0.0007388947997242212,-0.7817907333374023,0.009547293186187744,-9.78925609588623
731947911000,0.00018307830032426864,-0.0003479954320937395,-0.003655672539025545,-0.7895156145095825,0.09860256314277649,-9.776609420776367
731954866000,-0.00107920216396451,-0.0013390725944191217,0.0023679647129029036,-0.7683132886886597,-0.09021422266960144,-9.775444030761719
731961819000,0.0010736341355368495,0.0014840362127870321,-0.000572980148717761,-0.756929874420166,0.03735622763633728,-9.791877746582031
731968747000,0.00020862655946984887,-0.000687410356476903,0.0028113608714193106,-0.7955236434936523,-0.051863133907318115,-9.765926361083984
731975723000,0.00022093400184530765,4.630227340385318e-05,-0.0036363876424729824,-0.7907155752182007,0.10320347547531128,-9.777739524841309
731982635000,-0.0010596152860671282,-0.0010409940732643008,0.00236294767819345,-0.7694050073623657,-0.08953997492790222,-9.777231216430664
731996511000,-0.00026067171711474657,0.0013223703717812896,-0.0009381727431900799,-0.7833248376846313,0.014071524143218994,-9.789459228515625
732003464000,-0.00035509560257196426,0.0008305604569613934,-0.0009769005700945854,-0.7818701267242432,0.0012648701667785645,-9.786005020141602
732010458000,0.00011781707871705294,-0.001664236537180841,0.0027333293110132217,-0.7932167053222656,-0.06631726026535034,-9.762247085571289
732017358000,0.00011431888560764492,-0.0006177779287099838,-0.003848035354167223,-0.7903821468353271,0.1058829128742218,-9.774423599243164
732031245000,0.0009674759348854423,0.0015954662812873721,-0.0007642588461749256,-0.7580431699752808,0.045168161392211914,-9.791165351867676
732038230000,-0.00010399561142548919,-0.00068530288990587,0.002593999495729804,-0.7961112260818481,-0.05018928647041321,-9.764585494995117
732045184000,0.00013373917317949235,0.00012758051161654294,-0.003650988917797804,-0.7891417741775513,0.09873813390731812,-9.776102066040039
732052071000,-0.0010240426054224372,-0.000890066847205162,0.0023547569289803505,-0.7686103582382202,-0.09053945541381836,-9.777891159057617
732059106000,0.00024401850532740355,0.0006118283490650356,-0.0036890115588903427,-0.7864032983779907,0.09045770764350891,-9.773777961730957
732073016000,0.00108442734926939,0.001981311244890094,-0.0005781337968073785,-0.7589555978775024,0.037604331970214844,-9.798029899597168
732079855000,0.00017961848061531782,-0.00045347155537456274,0.002812776016071439,-0.7971442341804504,-0.05173423886299133,-9.76656723022461
732086791000,1.3595519703812897e-05,7.742679736111313e-05,-0.0038362403865903616,-0.7934063673019409,0.10759511590003967,-9.78016471862793
732093842000,-0.0008812713203951716,-0.0010810460662469268,0.0025289435870945454,-0.7672497034072876,-0.09797191619873047,-9.778826713562012
732100728000,0.0009668890852481127,0.001521317521110177,-0.0007749894284643233,-0.7612080574035645,0.04516276717185974,-9.796351432800293
732114586000,-0.0003229460562579334,0.0007174413185566664,-0.0009835512610152364,-0.7817178964614868,0.0006211996078491211,-9.786152839660645
732121581000,-7.745379116386175e-05,-0.0017419607611373067,0.0025374696124345064,-0.794562578201294,-0.06181129813194275,-9.761773109436035
732128488000,0.0002335539902560413,-0.0007238528924062848,-0.0036602094769477844,-0.7882187366485596,0.09778204560279846,-9.772496223449707
732135400000,-0.00103706622030586,-0.0013945457758381963,0.0023677826393395662,-0.7665354013442993,-0.09024500846862793,-9.77286148071289
732149339000,0.000223294657189399,-0.0006147482781670988,0.002807366894558072,-0.7957764863967896,-0.051844656467437744,-9.765457153320312
732156334000,0.00022643864213023335,7.44942226447165e-05,-0.003633592976257205,-0.7909789085388184,0.10314643383026123,-9.77687931060791
732163215000,-0.0010122096864506602,-0.0009246258996427059,0.00235601793974638,-0.7691131830215454,-0.08962580561637878,-9.778098106384277
732170136000,0.001061665010638535,0.0015838135732337832,-0.0005787061527371407,-0.758769154548645,0.03769594430923462,-9.79442310333252
732177152000,-0.00025565619580447674,0.0013311350485309958,-0.0009393178625032306,-0.78338223695755,0.014077723026275635,-9.789667129516602
732191025000,0.00019557132327463478,-0.00035884007229469717,-0.003660178044810891,-0.7895976305007935,0.09777787327766418,-9.776945114135742
732197942000,-0.0010697082616388798,-0.0013557031052187085,0.0023670175578445196,-0.768425703048706,-0.09028324484825134,-9.775847434997559
732204950000,0.001076066168025136,0.001464609056711197,-0.0005764702800661325,-0.757073163986206,0.03743791580200195,-9.791994094848633
732211815000,-0.00020522507838904858,0.001294849906116724,-0.0009443412418477237,-0.7829272747039795,0.013980180025100708,-9.789422035217285
732218748000,-8.322938811033964e-05,-0.0011498522944748402,0.0025380104780197144,-0.7951774597167969,-0.06016731262207031,-9.762227058410645
732232631000,-0.0010253563523292542,-0.0012494164984673262,0.0023580919951200485,-0.7676054239273071,-0.09034094214439392,-9.775925636291504
732239684000,0.001081494614481926,0.0015136064030230045,-0.0005773812881670892,-0.7573190927505493,0.03752398490905762,-9.792118072509766
732246517000,-0.00017666921485215425,0.0012829964980483055,-0.0008571376674808562,-0.7829934358596802,0.012366682291030884,-9.788976669311523
732253468000,-7.370044477283955e-05,-0.0011341740610077977,0.002549726516008377,-0.7951473593711853,-0.0587482750415802,-9.762439727783203
732267359000,-0.00104274891782552,-0.0012451910879462957,0.00236010504886508,-0.7675129175186157,-0.09041094779968262,-9.775997161865234
732274339000,0.0010789100779220462,0.0015159916365519166,-0.0005773737793788314,-0.7572751045227051,0.037476569414138794,-9.792137145996094
732281248000,-3.120431210845709e-05,0.00125794461928308,-0.0007391819963231683,-0.7818648815155029,0.009533494710922241,-9.789175987243652
732288285000,-4.624854773283005e-05,-0.0011316619347780943,0.002568401861935854,-0.7962177991867065,-0.05635106563568115,-9.762470245361328
732302090000,-0.0010645015863701701,-0.0013311471557244658,0.002366270637139678,-0.7683444023132324,-0.09028202295303345,-9.775513648986816
732309089000,0.00023850362049415708,0.0003754924109671265,-0.0036873938515782356,-0.7852379083633423,0.09042134881019592,-9.770297050476074
732315982000,-0.0010410428512841463,-0.0005881472607143223,0.0023665153421461582,-0.7676870226860046,-0.09087467193603516,-9.777173042297363
732322988000,0.001309079467318952,0.00020150607451796532,0.00307442550547421,-0.773306131362915,-0.023705720901489258,-9.77303695678711
732329883000,0.00022227538283914328,0.0007006415980868042,-0.003592198481783271,-0.7916182279586792,0.11184966564178467,-9.782761573791504
732343792000,0.001051687286235392,0.0018474436365067959,-0.0005819553043693304,-0.7607259750366211,0.0375826358795166,-9.799945831298828
732350702000,-0.00025265361182391644,0.0014729946851730347,-0.0009440311114303768,-0.7843064069747925,0.01402309536933899,-9.791024208068848
732357693000,-0.00032343738712370396,0.0008947046007961035,-0.0009845069143921137,-0.7827340364456177,0.0011565089225769043,-9.7876558303833
732364632000,0.0001401578774675727,-0.0017105430597439408,0.0027301479130983353,-0.7941664457321167,-0.06633678078651428,-9.763235092163086
732371618000,0.0011736326850950718,0.0002276145969517529,-0.0005537103279493749,-0.7630355358123779,0.04877209663391113,-9.796564102172852
732385422000,-0.0003967213269788772,-0.00013242590648587793,-0.0009947512298822403,-0.7796024084091187,-0.002585470676422119,-9.7827730178833
732392407000,0.00011877110227942467,-0.002323522698134184,0.0027336792554706335,-0.7910200953483582,-0.06695893406867981,-9.75704574584961
732399312000,0.0001159612147603184,-0.0006340476684272289,-0.0038431056309491396,-0.7865626215934753,0.10581165552139282,-9.765312194824219
732406328000,-0.0009103588527068496,-0.0011760115157812834,0.0025473006535321474,-0.7629766464233398,-0.09764730930328369,-9.768260955810547
732420190000,-0.0008994778036139905,-0.00023000396322458982,0.0025422018952667713,-0.7656988501548767,-0.09833735227584839,-9.777019500732422
732427156000,0.0012186083476990461,0.0005824724794365466,0.0028923368081450462,-0.7759616374969482,-0.016186952590942383,-9.775346755981445
732434033000,0.00012824032455682755,0.0009176398161798716,-0.0036017706152051687,-0.7912454605102539,0.10900425910949707,-9.783239364624023
732441048000,-0.0010875776642933488,-0.0002090991474688053,0.0023637181147933006,-0.7704013586044312,-0.08918538689613342,-9.78030776977539
732447918000,0.001035249442793429,0.001890417654067278,-0.0005786321125924587,-0.7613340616226196,0.03754100203514099,-9.80265998840332
732461827000,-6.640533683821559e-05,0.0007621501572430134,-0.0007704515592195094,-0.7825754284858704,0.0005018115043640137,-9.788190841674805
732468749000,-3.982218913733959e-06,-0.0017215557163581252,0.0025620250962674618,-0.7965167760848999,-0.057393431663513184,-9.76400375366211
732475749000,0.00021234818268567324,-0.0009163193171843886,-0.003658212022855878,-0.7893885970115662,0.09858059883117676,-9.775464057922363
732482647000,-0.0010339239379391074,-0.001649121637456119,0.002364926738664508,-0.7669700384140015,-0.09028312563896179,-9.773185729980469
732496545000,-3.2097334042191505e-05,0.0011247878428548574,-0.0007390818209387362,-0.7814830541610718,0.009542733430862427,-9.78864860534668
732503471000,-4.806555807590485e-06,-0.0011745047522708774,0.002562236273661256,-0.7957645654678345,-0.05648839473724365,-9.762131690979004
732510505000,0.00019622153195086867,-0.00035550311440601945,-0.00365556706674397,-0.7891677021980286,0.09861534833908081,-9.774133682250977
732517378000,-0.0010149021400138736,-0.0011678681476041675,0.0023599355481565,-0.7674426436424255,-0.09037443995475769,-9.775307655334473
732524389000,0.0010692409705370665,0.0015597904566675425,-0.0005730916745960712,-0.7574142217636108,0.03762117028236389,-9.7919340133667
732538279000,6.63811806589365e-06,9.721478272695094e-05,-0.0038336659781634808,-0.7919573783874512,0.10763144493103027,-9.777741432189941
732545152000,-0.0009655293542891741,-0.0011238129809498787,0.002543244045227766,-0.7673022747039795,-0.09771838784217834,-9.776826858520508
732552073000,0.000959247350692749,0.0017390577122569084,-0.0007721404545009136,-0.7596843242645264,0.044914454221725464,-9.795236587524414
732559075000,-0.00031556154135614634,0.0013637327356263995,-0.0009535099379718304,-0.7828140258789062,0.01108163595199585,-9.789424896240234
732573010000,8.920906111598015e-07,-0.0016013315180316567,0.0025581808295100927,-0.7958779335021973,-0.05789309740066528,-9.762738227844238
732579865000,0.00021864601876586676,-0.00078947888687253,-0.0036578914150595665,-0.7891423106193542,0.0985184907913208,-9.773881912231445
732586801000,-0.001037203473970294,-0.001460236613638699,0.0023670208174735308,-0.7664819955825806,-0.09026148915290833,-9.773706436157227
732593787000,0.0010774829424917698,0.0014494656352326274,-0.0005715383449569345,-0.7563523054122925,0.03753238916397095,-9.789981842041016
732600739000,0.00012510025408118963,-0.0007726702024228871,0.0028201935347169638,-0.7956620454788208,-0.051473915576934814,-9.76479434967041
732614602000,-0.0010491558350622654,-0.0009173111757263541,0.002362051047384739,-0.7689844369888306,-0.08953338861465454,-9.777878761291504
732621660000,0.0002233452396467328,0.0006279154913499951,-0.0036873563658446074,-0.7861983776092529,0.09051725268363953,-9.773728370666504
732628505000,-0.0009929572697728872,-0.0004876437014900148,0.0023535429500043392,-0.7686514854431152,-0.09102818369865417,-9.778604507446289
732635417000,0.0010985606350004673,0.0019679609686136246,-0.0005802226369269192,-0.7592008113861084,0.03759989142417908,-9.797986030578613
732649317000,0.00011852572788484395,7.023428042884916e-05,-0.0036504226736724377,-0.7913974523544312,0.09954401850700378,-9.780360221862793
732656375000,-0.001089506084099412,-0.0010920122731477022,0.002363807987421751,-0.7696976661682129,-0.09036386013031006,-9.778097152709961
732663263000,0.0010669112671166658,0.001450593932531774,-0.0005801855586469173,-0.7588863372802734,0.03731760382652283,-9.79548454284668
732670170000,-1.024617813527584e-05,0.0011854118201881647,-0.0007451463025063276,-0.7822346687316895,0.009369730949401855,-9.790224075317383
732677167000,-5.565467290580273e-06,-0.0012179571203887463,0.0025507709942758083,-0.7965783476829529,-0.05626511573791504,-9.763229370117188
732691077000,-0.0010262863943353295,-0.0013963363599032164,0.0023602196015417576,-0.7679961323738098,-0.0903235375881195,-9.775315284729004
732697970000,0.0010662556160241365,0.001485462998971343,-0.0005761360516771674,-0.7568643093109131,0.03762146830558777,-9.792017936706543
732704986000,-1.671456266194582e-05,0.0011639522854238749,-0.0007422576891258359,-0.7823659181594849,0.009458273649215698,-9.788418769836426
732711883000,-2.1769199520349503e-05,-0.0011954313376918435,0.002564112190157175,-0.7962417602539062,-0.05638507008552551,-9.7622652053833
732725810000,-0.0010706743923947215,-0.001300802337937057,0.0023675516713410616,-0.7679545283317566,-0.09029647707939148,-9.77486801147461
732732693000,0.001082496833987534,0.001511633861809969,-0.0005777518381364644,-0.7571603655815125,0.03742620348930359,-9.791419982910156
732739708000,-3.100384492427111e-05,0.0012881046859547496,-0.0007387946825474501,-0.7818130254745483,0.009543031454086304,-9.789369583129883
732746577000,-7.171835750341415e-05,-0.0011207610368728638,0.002571078948676586,-0.796450674533844,-0.05623629689216614,-9.762289047241211
732753529000,0.0001944718387676403,-0.0003202772350050509,-0.0036569249350577593,-0.7894948720932007,0.09841668605804443,-9.776468276977539
732767413000,0.0010717811528593302,0.0015029285568743944,-0.0005730823613703251,-0.7573531866073608,0.037553489208221436,-9.792571067810059
732774414000,-7.250055205076933e-05,0.0011653671972453594,-0.0007349415682256222,-0.7823458909988403,0.009735673666000366,-9.788423538208008
732781341000,-5.088059697300196e-05,-0.001165220164693892,0.002568483119830489,-0.7960214018821716,-0.05649369955062866,-9.762552261352539
732788336000,0.00019411486573517323,-0.00042470425250940025,-0.003654519096016884,-0.7897088527679443,0.09846058487892151,-9.775298118591309
732795270000,-0.0010404296917840838,-0.0012463161256164312,0.002363644540309906,-0.767528772354126,-0.09028562903404236,-9.775927543640137
732809127000,-1.9671861082315445e-05,0.0012690344592556357,-0.0007410091930069029,-0.781847357749939,0.009559690952301025,-9.789299011230469
732816040000,-4.8738205805420876e-05,-0.0011328543769195676,0.0025644910056144,-0.7963407039642334,-0.056230366230010986,-9.762451171875
732823084000,0.00020160473650321364,-0.00043870939407497644,-0.0036592313554137945,-0.7899038195610046,0.09843689203262329,-9.775557518005371
732829935000,-0.0010351865785196424,-0.0012603215873241425,0.0023626445326954126,-0.7675125002861023,-0.09034031629562378,-9.77619457244873
732843839000,-1.504877582192421e-05,0.0012509755324572325,-0.0007413715356960893,-0.7818191051483154,0.009544342756271362,-9.789273262023926
732850792000,-1.9375118426978588e-05,-0.0011300442274659872,0.0025637755170464516,-0.7961883544921875,-0.056365907192230225,-9.762625694274902
732857774000,0.0001755873381625861,-0.0004553459875751287,-0.0036556983832269907,-0.7899612784385681,0.09867563843727112,-9.775546073913574
732864654000,-0.001006905804388225,-0.0012529821833595634,0.0023593432269990444,-0.7673361301422119,-0.09053641557693481,-9.776140213012695
732871626000,0.0010630168253555894,0.0014848068822175264,-0.0005753088626079261,-0.7573479413986206,0.03772777318954468,-9.792150497436523
732885483000,3.471267700660974e-05,3.982057387474924e-05,-0.003746212460100651,-0.7916117310523987,0.10593271255493164,-9.776910781860352
732892520000,-0.0011331074638292193,-0.0010472744470462203,0.0023540654219686985,-0.7681421041488647,-0.09193193912506104,-9.777116775512695
732899363000,0.00022996164625510573,0.0006279172375798225,-0.003689638338983059,-0.7856473922729492,0.08994197845458984,-9.773287773132324
732906397000,-0.0009883553721010685,-0.0004787034704349935,0.002356459852308035,-0.76857590675354,-0.09111669659614563,-9.778493881225586
732913250000,0.0010817337315529585,0.0019672424532473087,-0.0005781922372989357,-0.7593094706535339,0.0377354621887207,-9.79761028289795
732927220000,-0.00015292793978005648,-0.0010226740268990397,0.002548511838540435,-0.7961297035217285,-0.060062259435653687,-9.763423919677734
732934135000,0.0010467360261827707,0.0006793169304728508,-0.0005574128590524197,-0.7630570530891418,0.04488840699195862,-9.800376892089844
732941168000,-4.336965503171086e-05,0.00041686667827889323,-0.0007414355059154332,-0.78199303150177,0.010029226541519165,-9.789087295532227
732947988000,-0.0003014921094290912,4.802507464773953e-05,-0.0009614899754524231,-0.7822849154472351,0.005195438861846924,-9.784546852111816
732954976000,0.00015295273624360561,-0.0022477556485682726,0.002732509048655629,-0.7922537326812744,-0.06585747003555298,-9.760261535644531
732968814000,-0.0009213256416842341,-0.0014165728352963924,0.002548309974372387,-0.763420820236206,-0.09767597913742065,-9.768684387207031
732975815000,0.00012809911277145147,0.0006985282525420189,-0.0038728476502001286,-0.7853170037269592,0.0979924201965332,-9.767193794250488
732982716000,-0.0009175786981359124,-0.0003691200399771333,0.0025463742204010487,-0.7655155658721924,-0.09828925132751465,-9.775654792785645
732989725000,0.001223685685545206,0.00048775540199130774,0.0028950348496437073,-0.7757003307342529,-0.016294479370117188,-9.773550033569336
732996602000,0.00011653988622128963,0.0008813359308987856,-0.0035996965598315,-0.790920615196228,0.10910490155220032,-9.783098220825195
733010526000,0.0009366192389279604,0.0019495083251968026,-0.0007714888197369874,-0.7635005712509155,0.04573225975036621,-9.802392959594727
733017432000,-0.0003378599649295211,0.001461003557778895,-0.0009498475701548159,-0.7836498022079468,0.011044025421142578,-9.791277885437012
733024453000,-0.00014293350977823138,0.0008063572458922863,-0.0007817313889972866,-0.7815335988998413,-0.003940761089324951,-9.787901878356934
733031345000,-2.4354085326194763e-05,-0.001685321214608848,0.0025612949393689632,-0.796297550201416,-0.057992130517959595,-9.763875007629395
733038293000,0.0002110357745550573,-0.0009109571110457182,-0.0036555605474859476,-0.789566159248352,0.09843811392784119,-9.775150299072266
733052152000,0.001079248497262597,0.0014189411886036396,-0.0005718178581446409,-0.755722165107727,0.03737318515777588,-9.789665222167969
733059209000,0.0001919376663863659,-0.0007736044935882092,0.0028131441213190556,-0.7956814169883728,-0.05172047019004822,-9.76517391204834
733066101000,-7.172988262027502e-06,3.534073766786605e-05,-0.003831094829365611,-0.7916206121444702,0.10769897699356079,-9.774897575378418
733073063000,-0.0008960333652794361,-0.0009477755520492792,0.002533583203330636,-0.7661367654800415,-0.09799784421920776,-9.776934623718262
733079948000,0.0009707683930173516,0.001810104469768703,-0.0007737706764601171,-0.7602336406707764,0.04511505365371704,-9.795011520385742
733093910000,-0.0002937593380920589,0.0009369724430143833,-0.000986769562587142,-0.7821325063705444,0.0007043182849884033,-9.786825180053711
733100822000,0.0001412578858435154,-0.0016675678780302405,0.0027309798169881105,-0.7938872575759888,-0.06622332334518433,-9.762521743774414
733107752000,0.00012900703586637974,-0.0007573695620521903,-0.003851190209388733,-0.7911847829818726,0.10594707727432251,-9.774266242980957
733114657000,-0.0009188014082610607,-0.0015664702514186502,0.0025454750284552574,-0.7647604942321777,-0.0976254940032959,-9.773316383361816
733128571000,-5.6354503612965345e-05,-0.0006402261205948889,0.0025909238029271364,-0.7954757213592529,-0.05044475197792053,-9.7658052444458
733135485000,0.00013377942377701402,0.00016745436005294323,-0.0036470636259764433,-0.7892454862594604,0.09889340400695801,-9.776493072509766
733142505000,-0.0010790509404614568,-0.0009861583821475506,0.0023646564222872257,-0.7693623304367065,-0.09031045436859131,-9.776836395263672
733149391000,0.0010784793412312865,0.0017210898222401738,-0.0005782371736131608,-0.7577378153800964,0.03735807538032532,-9.795045852661133
733156403000,-6.738991942256689e-05,0.0013056776951998472,-0.0007392342668026686,-0.7827277183532715,0.009727537631988525,-9.78928279876709
733170197000,0.0001914614113047719,-0.0003972258709836751,-0.0036608437076210976,-0.790141224861145,0.09862056374549866,-9.777984619140625
733177194000,-0.0010451300768181682,-0.0014210835797712207,0.0023624333553016186,-0.7685680389404297,-0.09035560488700867,-9.776052474975586
733184136000,0.0010645954171195626,0.0014545932644978166,-0.0005751135176979005,-0.7567219734191895,0.037542879581451416,-9.79266357421875
733191194000,-1.6782665625214577e-05,0.0011227652430534363,-0.0007418424356728792,-0.7822226881980896,0.009347349405288696,-9.7883939743042
733198078000,-7.444759830832481e-06,-0.0012134878197684884,0.002514731138944626,-0.7960939407348633,-0.055651694536209106,-9.76266098022461
733211988000,-0.0010471494169905782,-0.0013284585438668728,0.0023603516165167093,-0.7678035497665405,-0.09040558338165283,-9.774797439575195
733218931000,0.001078995643183589,0.0015038902638480067,-0.0005765621899627149,-0.7568504214286804,0.03744089603424072,-9.79161548614502
733225940000,2.4827895686030388e-06,0.0012694577453657985,-0.0007471065619029105,-0.7817033529281616,0.009484946727752686,-9.789319038391113
733232803000,-3.098964225500822e-05,-0.0011430421145632863,0.0025649804156273603,-0.796267569065094,-0.05631330609321594,-9.762348175048828
733246707000,-0.001007507205940783,-0.0012492925161495805,0.0023595779202878475,-0.7673777341842651,-0.09046489000320435,-9.776196479797363
733253633000,0.00022867444204166532,0.0003950995742343366,-0.0036855055950582027,-0.7854912281036377,0.09065908193588257,-9.770746231079102
733260716000,-0.0010259259724989533,-0.0006019110442139208,0.0023637658450752497,-0.767828643321991,-0.09093192219734192,-9.777225494384766
733267518000,0.0013255983358249068,9.022769518196583e-05,0.0030747714918106794,-0.7737438082695007,-0.023760974407196045,-9.77218246459961
733281402000,-0.0010757485870271921,-0.000373599526938051,0.0023659931030124426,-0.770031750202179,-0.08844801783561707,-9.779586791992188
733288373000,0.001028092810884118,0.0018905899487435818,-0.0005758245824836195,-0.7604085206985474,0.03763356804847717,-9.800067901611328
733295395000,-0.0002645918866619468,0.0014711437979713082,-0.0009412288782186806,-0.7844750285148621,0.014010041952133179,-9.79062557220459
733302307000,-0.0003445139154791832,0.0008863548282533884,-0.0009777112863957882,-0.782680094242096,0.0011472105979919434,-9.787517547607422
733309284000,0.00010765332262963057,-0.0017120427219197154,0.002734242007136345,-0.7940519452095032,-0.06605193018913269,-9.763221740722656
733323229000,-0.0008803684031590819,-0.001596382586285472,0.002540602581575513,-0.7647168636322021,-0.09774854779243469,-9.773772239685059
733330074000,0.000967746484093368,0.0014742249622941017,-0.0007689475896768272,-0.7584366798400879,0.045256733894348145,-9.790360450744629
733336987000,-0.0003063431940972805,0.001214952557347715,-0.0009494120022282004,-0.7822697162628174,0.01097947359085083,-9.7883882522583
733343976000,-9.584822691977024e-05,-0.0011748888064175844,0.0025365811306983232,-0.7947320342063904,-0.06082355976104736,-9.761749267578125
733350868000,0.00018796930089592934,-0.0003335120854899287,-0.0036589372903108597,-0.7892324924468994,0.09788927435874939,-9.774248123168945
733364773000,0.0010779853910207748,0.0016657079104334116,-0.0005756269674748182,-0.756958544254303,0.03749370574951172,-9.793028831481934
733371703000,-0.00021609326358884573,0.001375969615764916,-0.0009407153120264411,-0.7834928035736084,0.014000385999679565,-9.789152145385742
733378696000,-0.00013014988508075476,-0.0011363349622115493,0.002541718538850546,-0.7955179214477539,-0.05995658040046692,-9.762192726135254
733385598000,0.00019753677770495415,-0.0003317806695122272,-0.0036607144866138697,-0.7894938588142395,0.09774112701416016,-9.776581764221191
733392622000,-0.0010175589704886079,-0.0012709246948361397,0.0023591637145727873,-0.7681347131729126,-0.09045273065567017,-9.776453018188477
733406492000,-0.00025764619931578636,0.0012261717347428203,-0.0009374387445859611,-0.7832446694374084,0.01421394944190979,-9.788838386535645
733413448000,-0.00010472582653164864,-0.0011918196687474847,0.002539608161896467,-0.7949943542480469,-0.060261547565460205,-9.762174606323242
733420311000,0.00020266033243387938,-0.0004133778566028923,-0.0036614288110285997,-0.7895127534866333,0.09783509373664856,-9.774931907653809
733427383000,-0.0010206662118434906,-0.0012257460039108992,0.002361676190048456,-0.7673722505569458,-0.0904412567615509,-9.775999069213867
733441235000,0.00020410912111401558,-0.0006689936853945255,0.0028090672567486763,-0.7956821918487549,-0.05182403326034546,-9.765949249267578
733448155000,1.024243829306215e-05,7.075104804243892e-05,-0.003836759366095066,-0.7920398712158203,0.10769188404083252,-9.777722358703613
733455067000,-0.0009370539337396622,-0.0011385270627215505,0.0025385688059031963,-0.7672605514526367,-0.09783497452735901,-9.776762962341309
733462036000,0.0009737900691106915,0.001656449749134481,-0.0007737610139884055,-0.7599903345108032,0.044944167137145996,-9.794479370117188
733468939000,-0.0003257871139794588,0.0013350602239370346,-0.0009516151039861143,-0.7824979424476624,0.011169373989105225,-9.789451599121094
733482834000,2.0845327526330948e-06,-0.0015956686111167073,0.0025576057378202677,-0.7959070205688477,-0.05783537030220032,-9.7625093460083
733489848000,0.00021497480338439345,-0.0007644459838047624,-0.003657926805317402,-0.7890256643295288,0.09853658080101013,-9.773953437805176
733496750000,-0.001067313365638256,-0.001485934597440064,0.0023714813869446516,-0.7667131423950195,-0.09018340706825256,-9.773311614990234
733503647000,0.0010820359457284212,0.00155991455540061,-0.0005737266037613153,-0.7556565403938293,0.037442415952682495,-9.79094409942627
733517563000,4.913037992082536e-05,9.388588659930974e-05,-0.0037498583551496267,-0.7913529872894287,0.10595104098320007,-9.776325225830078
733524592000,-0.001084327814169228,-0.0009407468605786562,0.0023447978310287,-0.7678673267364502,-0.09203743934631348,-9.77767276763916
733531458000,0.00023411487927660346,0.0006320311222225428,-0.003690439974889159,-0.7860827445983887,0.09005498886108398,-9.773542404174805
733538379000,-0.000982827041298151,-0.00048186059575527906,0.002351666335016489,-0.7686083316802979,-0.09105539321899414,-9.778593063354492
733545444000,0.0010814841371029615,0.0019675404764711857,-0.0005785042885690928,-0.759221076965332,0.037696242332458496,-9.797957420349121
733559277000,0.00013197140651755035,6.475436384789646e-05,-0.0036517814733088017,-0.7914378643035889,0.09950321912765503,-9.780243873596191
733566177000,-0.0010930354474112391,-0.0010899277403950691,0.0023635956458747387,-0.7696565985679626,-0.09028193354606628,-9.778135299682617
733573239000,0.0010753299575299025,0.0014613260282203555,-0.0005807742709293962,-0.7588022947311401,0.03732594847679138,-9.795613288879395
733580057000,-1.984217669814825e-05,0.0011766470270231366,-0.0007426198571920395,-0.7823066115379333,0.009447216987609863,-9.790064811706543
733594021000,0.00012272736057639122,-0.0018137245206162333,0.0027396853547543287,-0.794033408164978,-0.06547239422798157,-9.761711120605469
733600903000,0.001170181785710156,0.0003434790996834636,-0.0005475669167935848,-0.7616865038871765,0.04872980713844299,-9.794831275939941
733607898000,-0.00048305297968909144,0.00025402833125554025,-0.001132343546487391,-0.7837071418762207,0.02012234926223755,-9.787080764770508
733614790000,-0.00021516368724405766,-0.0020581497810781,0.0025210995227098465,-0.7927097678184509,-0.06396254897117615,-9.758722305297852
733628706000,-0.0010016912128776312,-0.0010845515644177794,0.0023609064519405365,-0.7656086683273315,-0.09052836894989014,-9.770766258239746
733635610000,0.00024047726765275002,0.0007530901348218322,-0.003684293944388628,-0.784318208694458,0.09062555432319641,-9.768956184387207
733642600000,-0.0009701623348519206,-0.00026060716481879354,0.0023551557678729296,-0.7679498791694641,-0.09102830290794373,-9.777772903442383
733649498000,0.0010999708902090788,0.0022072182036936283,-0.000575205369386822,-0.7589404582977295,0.037662506103515625,-9.797690391540527
733656582000,0.00019118556519970298,-0.000246043928200379,0.002811938524246216,-0.7971473932266235,-0.05164274573326111,-9.766949653625488
733670319000,-0.0009165515657514334,-0.0010200812248513103,0.0025339992716908455,-0.7678022384643555,-0.09786826372146606,-9.778894424438477
733677312000,0.0009624355006963015,0.0015538613079115748,-0.0007718163542449474,-0.7613326907157898,0.045022279024124146,-9.798097610473633
733684250000,-0.00032356270821765065,0.0011462945258244872,-0.0009497936116531491,-0.7830077409744263,0.0110989511013031,-9.789666175842285
733691244000,0.00011338188778609037,-0.0013545920373871922,0.002730501350015402,-0.7939697504043579,-0.06541967391967773,-9.76292896270752
733705057000,-0.0010094947647303343,-0.0014117129612714052,0.0023613665252923965,-0.7681931853294373,-0.08963003754615784,-9.77563190460205
733712045000,0.001064810436218977,0.0013882508501410484,-0.0005726822419092059,-0.7570765018463135,0.03768247365951538,-9.791181564331055
733718986000,-0.00024630542611703277,0.0011847486020997167,-0.0009382982971146703,-0.7830275297164917,0.014125943183898926,-9.788634300231934
733725963000,-9.809760376811028e-05,-0.0012094613630324602,0.0025385557673871517,-0.7948899269104004,-0.06023344397544861,-9.761883735656738
733739835000,-0.0010377540020272136,-0.001218782039359212,0.002362521830946207,-0.7676988244056702,-0.09031620621681213,-9.77544116973877
733746736000,0.0010774588445201516,0.0015656986506655812,-0.0005731960409320891,-0.7571555376052856,0.03748658299446106,-9.792186737060547
733753671000,-0.0002329822164028883,0.0013412144035100937,-0.0009375559166073799,-0.7831053733825684,0.01409420371055603,-9.789205551147461
733760678000,-0.00014764536172151566,-0.001151540782302618,0.002545172581449151,-0.7953550815582275,-0.05996301770210266,-9.76190185546875
733767553000,0.00020556547679007053,-0.00029428533161990345,-0.0036607554648071527,-0.7891415357589722,0.09765243530273438,-9.77635383605957
733781464000,0.001072182902134955,0.0014988814946264029,-0.0005767058464698493,-0.7573643922805786,0.037619978189468384,-9.792580604553223
733788386000,-0.00027636613231152296,0.0012287875870242715,-0.00093394162831828,-0.7832589149475098,0.014202356338500977,-9.788628578186035
733795392000,-0.00014033017214387655,-0.0011912357294932008,0.0025446696672588587,-0.7949399948120117,-0.060193270444869995,-9.7620210647583
733802282000,0.0001960390218300745,-0.000286896392935887,-0.0036629107780754566,-0.7888514995574951,0.09777489304542542,-9.776087760925293
733809300000,-0.0010063855443149805,-0.0012267022393643856,0.0023567285388708115,-0.7680203914642334,-0.09052318334579468,-9.776124000549316
733823410000,-7.580756209790707e-05,0.0011737702880054712,-0.0007356804562732577,-0.7821404933929443,0.009626001119613647,-9.788368225097656
733830124000,-6.482063326984644e-05,-0.0011623643804341555,0.002548382617533207,-0.7959098815917969,-0.05608287453651428,-9.762569427490234
733837063000,0.0001891975407488644,-0.00042971057700924575,-0.003661154769361019,-0.7895914316177368,0.09819382429122925,-9.775197982788086
733844038000,-0.0010542593663558364,-0.0012479349970817566,0.002361326478421688,-0.7673165798187256,-0.09032389521598816,-9.77590274810791
733857961000,-0.0009863588493317366,-0.0005068907630629838,0.00235840049572289,-0.7675032615661621,-0.09109234809875488,-9.777996063232422
733864818000,0.0013245102018117905,0.00020961521659046412,0.0030761701054871082,-0.77360999584198,-0.023630768060684204,-9.773783683776855
733871768000,0.00020901532843708992,0.000668094027787447,-0.003591901855543256,-0.7917459011077881,0.11202910542488098,-9.782634735107422
733878818000,-0.0010580993257462978,-0.00039791339077055454,0.0023615816608071327,-0.7703697681427002,-0.08855226635932922,-9.779352188110352
733885660000,0.0010271284263581038,0.001852561952546239,-0.0005799991195090115,-0.7604902386665344,0.037731945514678955,-9.800325393676758
733899594000,-0.0002964693121612072,0.0008728966349735856,-0.000988743151538074,-0.7826403379440308,0.001226574182510376,-9.787697792053223
733906563000,0.00016214733477681875,-0.0017305638175457716,0.0027255986351519823,-0.7940978407859802,-0.06629526615142822,-9.7632474899292
733913441000,9.70958499237895e-05,-0.0008415395859628916,-0.003847446758300066,-0.7914565801620483,0.10610136389732361,-9.775198936462402
733920367000,-0.0008965122979134321,-0.0016846612561494112,0.002543309237807989,-0.765078067779541,-0.09784483909606934,-9.772737503051758
733934255000,-0.0003084004274569452,0.0012063686735928059,-0.000949345005210489,-0.7822891473770142,0.01096874475479126,-9.78813648223877
733941292000,-7.804413326084614e-05,-0.0011556311510503292,0.002536499872803688,-0.7945804595947266,-0.060937464237213135,-9.761816024780273
733948179000,0.0002020373212872073,-0.00032283918699249625,-0.003659918438643217,-0.7892422676086426,0.09792676568031311,-9.774145126342773
733955117000,-0.0010428372770547867,-0.0011665030615404248,0.002364233834668994,-0.7675740718841553,-0.09033995866775513,-9.775436401367188
733969002000,-0.00021812680643051863,0.00137894949875772,-0.0009406515746377409,-0.783411979675293,0.013951092958450317,-9.789168357849121
733976026000,-0.00014094088692218065,-0.001139616477303207,0.002547525567933917,-0.7955113649368286,-0.06000027060508728,-9.762055397033691
733982871000,0.00019660999532788992,-0.00032957567600533366,-0.0036602176260203123,-0.7894589900970459,0.09776914119720459,-9.776419639587402
733989886000,-0.0010191546753048897,-0.0012513748370110989,0.0023589853662997484,-0.7680323123931885,-0.09043994545936584,-9.776532173156738
733996777000,0.0010739072458818555,0.0014901130925863981,-0.0005742780631408095,-0.7573978900909424,0.03757452964782715,-9.792608261108398
734010755000,0.0001363514456897974,4.93197439936921e-05,-0.0036501840222626925,-0.7895214557647705,0.09924930334091187,-9.776956558227539
734017664000,-0.0010772933019325137,-0.0010279432171955705,0.002361478516831994,-0.7690573334693909,-0.0902920663356781,-9.777274131774902
734024572000,0.0010707015171647072,0.0016044435324147344,-0.0005800002254545689,-0.7581466436386108,0.037390708923339844,-9.794042587280273
734031492000,-6.65868865326047e-05,0.0012938164873048663,-0.0007395437569357455,-0.7822452783584595,0.009650826454162598,-9.789556503295898
734045425000,-1.558661460876465e-05,-0.0016036012675613165,0.0025622418615967035,-0.7961025238037109,-0.05713263154029846,-9.762650489807129
734052330000,0.00019973827875219285,-0.0007766694761812687,-0.0036568192299455404,-0.7891020774841309,0.09856817126274109,-9.773859024047852
734059367000,-0.0010597053915262222,-0.0014714464778080583,0.0023705202620476484,-0.7666053771972656,-0.09028369188308716,-9.77340316772461
734066240000,0.0010726358741521835,0.0015591351548209786,-0.0005737207247875631,-0.7557694315910339,0.037526726722717285,-9.790958404541016
734073212000,-4.697177791967988e-05,-0.0006792644271627069,0.0026179600972682238,-0.7971922159194946,-0.04713863134384155,-9.764638900756836
734080128000,0.00013571276213042438,0.00013294481323100626,-0.0036455392837524414,-0.7891687750816345,0.0992683470249176,-9.77647876739502
734094114000,0.0010694196680560708,0.001700288150459528,-0.000578971637878567,-0.7581446170806885,0.037546783685684204,-9.795304298400879
734100932000,-2.3878994397819042e-05,0.001312723383307457,-0.0007439606124535203,-0.7825795412063599,0.00949186086654663,-9.789450645446777
734107960000,0.00014197942800819874,-0.0012118903687223792,0.002763559576123953,-0.7955467104911804,-0.0607704222202301,-9.762796401977539
734114820000,7.065970567055047e-05,-0.00040309131145477295,-0.003845751518383622,-0.7917982339859009,0.10660624504089355,-9.777817726135254
734128760000,0.0002413913607597351,0.00039105041651055217,-0.0036899056285619736,-0.7847808599472046,0.08986333012580872,-9.770700454711914
734135713000,-0.001011518994346261,-0.0006306396098807454,0.002361178630962968,-0.7679732441902161,-0.0909971296787262,-9.776877403259277
734142672000,0.001089568017050624,0.001964500406756997,-0.000575029815081507,-0.7583684921264648,0.03758767247200012,-9.795332908630371
734149545000,0.0002243910712422803,-0.00033418997190892696,0.002806741511449218,-0.7964662313461304,-0.05180823802947998,-9.76718521118164
734156573000,0.00022202060790732503,0.00010208858293481171,-0.0036367441061884165,-0.7925634384155273,0.10322746634483337,-9.779870986938477
734170367000,0.0010576352942734957,0.0014862340176478028,-0.0005802606465294957,-0.7592036724090576,0.037639111280441284,-9.796258926391602
734177358000,-0.0002233979757875204,0.001240248209796846,-0.0009435696410946548,-0.783504843711853,0.013915866613388062,-9.790217399597168
734184272000,-6.978237070143223e-05,-0.0012336515355855227,0.0025357697159051895,-0.7955236434936523,-0.060308098793029785,-9.76295280456543
734191368000,0.00019575824262574315,-0.0005029060412198305,-0.003661402501165867,-0.7899681329727173,0.09800872206687927,-9.776239395141602
734205090000,0.0010851148981601,0.0015183695359155536,-0.0005766242975369096,-0.7566641569137573,0.03749126195907593,-9.792357444763184
734212089000,-4.4887070544064045e-05,0.0011346187675371766,-0.0007385396165773273,-0.7826768159866333,0.009656757116317749,-9.787993431091309
734219056000,-1.1775409802794456e-05,-0.0011771294521167874,0.0025619121734052896,-0.7959978580474854,-0.05650663375854492,-9.762572288513184
734226068000,0.00017917228979058564,-0.00040950922993943095,-0.0036565158516168594,-0.7896231412887573,0.09868857264518738,-9.775227546691895
734232945000,-0.0010798677103593946,-0.0013136195484548807,0.0023688827641308308,-0.7679945230484009,-0.09026262164115906,-9.774782180786133
734246813000,-0.00019451347179710865,0.0013049270492047071,-0.0008503436110913754,-0.7830530405044556,0.012304157018661499,-9.788922309875488
734253770000,-3.166799433529377e-05,-0.0010401044273748994,0.0025453863199800253,-0.7949301600456238,-0.058911144733428955,-9.763153076171875
734260710000,0.00018877840193454176,-0.00031247027800418437,-0.0036554979160428047,-0.7898696660995483,0.0982891321182251,-9.776753425598145
734267644000,-0.0010727000189945102,-0.0013474150327965617,0.002366863191127777,-0.7686598300933838,-0.09020888805389404,-9.775432586669922
734274692000,0.0010771253146231174,0.0014724135398864746,-0.0005746298120357096,-0.7570821046829224,0.03738284111022949,-9.791914939880371
734288502000,-2.402486279606819e-05,-0.0011366020189598203,0.0025633221957832575,-0.7963225841522217,-0.056329190731048584,-9.76248836517334
734295510000,0.00018863825243897736,-0.00044449444976635277,-0.0036578450817614794,-0.7899608016014099,0.0986039936542511,-9.775497436523438
734302362000,-0.001014255452901125,-0.0012510772794485092,0.0023581909481436014,-0.7674776315689087,-0.090433269739151,-9.776126861572266
734309348000,0.0010900312336161733,0.0014910731697455049,-0.0005785143002867699,-0.7574222087860107,0.03755941987037659,-9.792131423950195
734316251000,-6.364588625729084e-05,0.0011898670345544815,-0.0007379961316473782,-0.7820788621902466,0.00975540280342102,-9.78866958618164
734330155000,0.0001838166790548712,-0.00043245501001365483,-0.0036541905719786882,-0.7896968126296997,0.09850606322288513,-9.775135040283203
734337091000,-0.001037876820191741,-0.001223606988787651,0.0023626270703971386,-0.7673107385635376,-0.09033629298210144,-9.776068687438965
734344066000,0.0010742939775809646,0.0015185473021119833,-0.0005774586461484432,-0.7573873400688171,0.037570834159851074,-9.792092323303223
734350969000,-2.300483174622059e-05,0.0012713578762486577,-0.00074065598892048,-0.7818030118942261,0.009486794471740723,-9.78928279876709
734364893000,0.0001871640415629372,-0.0003409014316275716,-0.0036565775517374277,-0.7893259525299072,0.09850507974624634,-9.776576042175293
734371766000,-0.001070797210559249,-0.0013230966869741678,0.0023665407206863165,-0.7682589292526245,-0.09023383259773254,-9.775609016418457
734378775000,0.0010636125225573778,0.0014819474890828133,-0.0005727443494834006,-0.7570096254348755,0.03743636608123779,-9.791942596435547
734385686000,0.00022282754071056843,-0.0006704780971631408,0.0028074015863239765,-0.7954260110855103,-0.051933348178863525,-9.766141891479492
734399579000,-0.0010711807990446687,-0.0010654350044205785,0.0023645509500056505,-0.769357442855835,-0.08955690264701843,-9.77713394165039
734406612000,0.0010606612777337432,0.0016055750893428922,-0.0005772527656517923,-0.7578685283660889,0.037476569414138794,-9.794428825378418
734413505000,-0.0002509402111172676,0.001329168095253408,-0.0009404243901371956,-0.7833757400512695,0.01408270001411438,-9.789414405822754
734456306000,0.00022902543423697352,-0.0006070589879527688,0.002888075541704893,-0.7960913777351379,-0.05360972881317139,-9.764766693115234
734456306000,0.00022902543423697352,-0.0006070589879527688,0.002888075541704893,-0.7960913777351379,-0.05360972881317139,-9.764766693115234
734473841000,0.000487570243421942,0.0005508422618731856,-0.00404831487685442,-0.7907177805900574,0.12480711936950684,-9.774598121643066
734473841000,0.000487570243421942,0.0005508422618731856,-0.00404831487685442,-0.7907177805900574,0.12480711936950684,-9.774598121643066
734491699000,-2.7507543563842773e-05,0.0019450073596090078,-0.0008836283232085407,-0.7841055989265442,0.01826140284538269,-9.792659759521484
734498680000,0.00010385946370661259,-0.0009812270291149616,0.0032541011460125446,-0.7965224981307983,-0.06497398018836975,-9.760516166687012
734505760000,0.0002506340970285237,-0.00017612954252399504,-0.0035753485281020403,-0.7913521528244019,0.1086961030960083,-9.78139591217041
734519508000,0.0009805875597521663,0.0013268380425870419,-0.0005717056919820607,-0.7569908499717712,0.037119150161743164,-9.79214859008789
734526504000,-5.340040661394596e-05,0.0010597534710541368,-0.0007402602350339293,-0.7819664478302002,0.00920155644416809,-9.788744926452637
734533394000,-6.527523510158062e-05,-0.0012968919472768903,0.0025660048704594374,-0.796025276184082,-0.05635824799537659,-9.761994361877441
734540337000,0.0001865311642177403,-0.00042851929902099073,-0.0036576164420694113,-0.7889546155929565,0.09842488169670105,-9.774255752563477
734554214000,0.0010787064675241709,0.0015475222608074546,-0.0005780020146630704,-0.7574189901351929,0.03767871856689453,-9.791959762573242
734561197000,-1.199671532958746e-05,0.001281136297620833,-0.0007434696308337152,-0.7818870544433594,0.009489685297012329,-9.789281845092773
734568082000,-6.214843597263098e-05,-0.0011496676597744226,0.0025684074498713017,-0.7964128851890564,-0.05621832609176636,-9.762314796447754
734575170000,0.00018534464470576495,-0.0003304100828245282,-0.003659517504274845,-0.7892450094223022,0.09851402044296265,-9.776612281799316
734588971000,0.00022875244030728936,0.0003861591103486717,-0.003686981974169612,-0.7851181626319885,0.0904417634010315,-9.770355224609375
734595928000,-0.0010528776329010725,-0.0005927399033680558,0.002367970999330282,-0.7677456736564636,-0.09088343381881714,-9.777070045471191
734602798000,0.0013187236618250608,0.0002336357720196247,0.0030730015132576227,-0.7731132507324219,-0.023781150579452515,-9.77334213256836
734609866000,0.000219848589040339,0.0006603483343496919,-0.0035914061591029167,-0.7919689416885376,0.11188653111457825,-9.782303810119629
734616731000,-0.0010861026821658015,-0.00037872971734032035,0.002366095781326294,-0.7702692747116089,-0.08840030431747437,-9.779537200927734
734630622000,-9.602471254765987e-05,0.0014433561591431499,-0.0008315267623402178,-0.7833895683288574,0.011255264282226562,-9.791107177734375
734637559000,-0.0002879185485653579,0.0008694419520907104,-0.0009738602093420923,-0.783787727355957,0.0035201609134674072,-9.787629127502441
734644553000,0.00013568229041993618,-0.001730333431623876,0.002731448970735073,-0.794273853302002,-0.06589117646217346,-9.76339340209961
734651448000,0.000958253804128617,0.00028375640977174044,-0.0007538530044257641,-0.7639375925064087,0.053325384855270386,-9.796859741210938
734665324000,-9.918976866174489e-05,-0.00018545376951806247,-0.0007888358668424189,-0.7791243195533752,-0.004036605358123779,-9.783116340637207
734672233000,-3.027566708624363e-05,-0.002320352476090193,0.0025629654992371798,-0.7937700748443604,-0.05785420536994934,-9.757574081420898
734679254000,0.0002147332124877721,-0.0007787490030750632,-0.003651807550340891,-0.78476881980896,0.09833759069442749,-9.764251708984375
734686137000,-0.001051447237841785,-0.0010982687817886472,0.002369252499192953,-0.7642959952354431,-0.09013935923576355,-9.768499374389648
734693192000,0.0002410446759313345,0.0008424364496022463,-0.0036830950994044542,-0.78370201587677,0.09045630693435669,-9.767419815063477
734707040000,0.0013180386740714312,0.0004942870000377297,0.0030753908213227987,-0.7739142179489136,-0.02377566695213318,-9.774886131286621
734714037000,0.00021656532771885395,0.000902045052498579,-0.0035893067251890898,-0.7919520139694214,0.11191257834434509,-9.783354759216309
734720850000,-0.0010982321109622717,-0.00022888730745762587,0.002367711393162608,-0.7706608772277832,-0.08834323287010193,-9.780316352844238
734727906000,0.001033697510138154,0.0018864201847463846,-0.0005786148831248283,-0.7612099051475525,0.0375443696975708,-9.80260944366455
734741788000,-0.00025270372861996293,0.0008254029671661556,-0.0009687682613730431,-0.7836996912956238,0.0050019025802612305,-9.788376808166504
734748647000,0.00015203654766082764,-0.0017897539073601365,0.002729647560045123,-0.7943321466445923,-0.06563326716423035,-9.763686180114746
734755575000,0.0002955297823064029,-0.0009036619449034333,-0.003738221013918519,-0.7902060747146606,0.10310465097427368,-9.775927543640137
734762575000,-0.0010496164904907346,-0.001693348167464137,0.002359985141083598,-0.7674155235290527,-0.0908227264881134,-9.773252487182617
734769468000,0.0008642695611342788,0.001375372288748622,-0.0007716254331171513,-0.7569079995155334,0.041920870542526245,-9.78917121887207
734783374000,0.0001288830244448036,9.640432836022228e-05,-0.0036506247706711292,-0.7888051271438599,0.0988781750202179,-9.774473190307617
734790499000,-0.001012291293591261,-0.0008648446528241038,0.0023543131537735462,-0.7685570120811462,-0.08949851989746094,-9.776938438415527
734797436000,0.0010699853301048279,0.001766745001077652,-0.0005858258227817714,-0.7582873702049255,0.037736743688583374,-9.794501304626465
734804339000,-6.949412636458874e-05,0.0013489499688148499,-0.000741263444069773,-0.7826188802719116,0.009615331888198853,-9.789371490478516
734811309000,-0.00027852202765643597,0.0009016899857670069,-0.0009638338233344257,-0.7829208374023438,0.004949122667312622,-9.786944389343262
734825207000,0.00032697076676413417,-0.0007004039944149554,-0.0036491078790277243,-0.7895718812942505,0.10136529803276062,-9.7750244140625
734832109000,-0.00104312424082309,-0.0015026135370135307,0.002371798735111952,-0.7675132751464844,-0.08940422534942627,-9.774027824401855
734839037000,0.0010634501231834292,0.0014324113726615906,-0.0005704693030565977,-0.7562212944030762,0.03763428330421448,-9.79028606414795
734846088000,-5.2436196710914373e-05,-0.0007418511668220162,0.0026208870112895966,-0.7968590259552002,-0.047155678272247314,-9.764896392822266
734859931000,-0.0010915071470662951,-0.0009897983400151134,0.0023649113718420267,-0.7692155838012695,-0.0902656614780426,-9.776702880859375
734866811000,0.0010771190281957388,0.0017315205186605453,-0.0005783882807008922,-0.7576098442077637,0.03730180859565735,-9.794804573059082
734873868000,-6.0069956816732883e-05,0.0013299386482685804,-0.0007400650065392256,-0.7826096415519714,0.009685933589935303,-9.789361953735352
734880751000,-2.9067276045680046e-05,-0.00105727044865489,0.002562548266723752,-0.7962936162948608,-0.056538671255111694,-9.763646125793457
734887615000,0.00018715736223384738,-0.00041612100903876126,-0.0036586765199899673,-0.7902463674545288,0.09858682751655579,-9.777791023254395
734901517000,0.0010633980855345726,0.0014486933359876275,-0.0005752780707553029,-0.7567777633666992,0.03755456209182739,-9.792596817016602
734908520000,-1.3406970538198948e-05,0.001144462381489575,-0.0007426487863995135,-0.7820717692375183,0.009425073862075806,-9.788737297058105
734915426000,-2.4228240363299847e-05,-0.0012211818248033524,0.0025553067680448294,-0.7960875034332275,-0.05621722340583801,-9.76237964630127
734922348000,0.00018472125520929694,-0.0004135587369091809,-0.003656422719359398,-0.7891743183135986,0.09847310185432434,-9.775508880615234
734929356000,-0.0010590425226837397,-0.0013309669448062778,0.0023656233679503202,-0.7678547501564026,-0.09029996395111084,-9.774857521057129
734943284000,-0.0010458597680553794,-0.0005696114967577159,0.002367344917729497,-0.7676609754562378,-0.09089499711990356,-9.776957511901855
734950134000,0.0013191918842494488,0.0002159331925213337,0.0030758450739085674,-0.7732748985290527,-0.023797571659088135,-9.773043632507324
734957185000,0.0002223671181127429,0.00068591971648857,-0.003589706728234887,-0.7917191982269287,0.11188700795173645,-9.782607078552246
734964080000,-0.0010741485748440027,-0.0003593548317439854,0.002365764230489731,-0.7702840566635132,-0.08841970562934875,-9.779584884643555
734970960000,0.0010322972666472197,0.0018403452122583985,-0.0005815693875774741,-0.7607756853103638,0.037706077098846436,-9.800027847290039
734984898000,-0.0002587398048490286,0.0008808934362605214,-0.0009693784522823989,-0.7836311459541321,0.00496402382850647,-9.787961959838867
734991843000,0.00012245657853782177,-0.0017399933421984315,0.002737349597737193,-0.7944220304489136,-0.06563502550125122,-9.76327133178711
734998765000,0.0001048622652888298,-0.0008542325813323259,-0.003851461224257946,-0.7915354371070862,0.10607582330703735,-9.775172233581543
735005738000,-0.000939277233555913,-0.0016991568263620138,0.002548182848840952,-0.7650617957115173,-0.09769359230995178,-9.772850036621094
735019568000,-0.0003268023137934506,0.0012145296204835176,-0.0009465961484238505,-0.78232741355896,0.011066347360610962,-9.788239479064941
735026592000,-0.00011640263255685568,-0.0011685765348374844,0.002539109205827117,-0.7946910858154297,-0.06081923842430115,-9.76165771484375
735033494000,0.00021504647156689316,-0.00022919676848687232,-0.0036574169062078,-0.7887557744979858,0.09763666987419128,-9.77501106262207
735040463000,-0.001022961805574596,-0.0011649485677480698,0.0023605460301041603,-0.7681360244750977,-0.09028762578964233,-9.775718688964844
735054293000,-0.00021222408395260572,0.0013480759225785732,-0.0009428047924302518,-0.7834521532058716,0.01400691270828247,-9.789238929748535
735061308000,-0.00010217202361673117,-0.0011438964866101742,0.0025376153644174337,-0.795438289642334,-0.06006515026092529,-9.762345314025879
735068199000,0.00020556451636366546,-0.000423807738116011,-0.0036625938955694437,-0.7899024486541748,0.09781363606452942,-9.775729179382324
735075206000,-0.0010282419389113784,-0.001274445210583508,0.002361036604270339,-0.7676398754119873,-0.0904054343700409,-9.776299476623535
735089013000,-0.00022684806026518345,0.0012010273057967424,-0.00084835005691275,-0.7832417488098145,0.012518316507339478,-9.78846263885498
735096040000,-0.00010865507647395134,-0.0011791252763941884,0.0025576537009328604,-0.7949424982070923,-0.05882275104522705,-9.762367248535156
735102929000,0.00018822154379449785,-0.0003040065639652312,-0.0036576716229319572,-0.7890390157699585,0.09809157252311707,-9.776017189025879
735109949000,-0.0010135226184502244,-0.0012368314201012254,0.002358451019972563,-0.7680822610855103,-0.090457022190094,-9.775956153869629
735116808000,0.001077981316484511,0.0015016793040558696,-0.0005744991940446198,-0.757374107837677,0.03757840394973755,-9.792362213134766
735130799000,-1.0580755770206451e-05,-0.0011393992463126779,0.002561071887612343,-0.7961883544921875,-0.05642145872116089,-9.762699127197266
735137646000,0.0001998889201786369,-0.0004611213516909629,-0.00365884555503726,-0.7899441719055176,0.09859535098075867,-9.775690078735352
735144629000,-0.0010791834210976958,-0.001349859987385571,0.0023690713569521904,-0.7677268981933594,-0.09018206596374512,-9.775369644165039
735151530000,0.0010767059866338968,0.0014992350479587913,-0.0005739220650866628,-0.7567799687385559,0.03737282752990723,-9.791802406311035
735158517000,0.0002245774958282709,-0.0006647558766417205,0.0028076046146452427,-0.7954846620559692,-0.05188915133476257,-9.76608943939209
735172367000,-0.0011243164772167802,-0.0010693258373066783,0.0023540158290416002,-0.7682585716247559,-0.09201890230178833,-9.777034759521484
735179358000,0.00021974695846438408,0.0005240241880528629,-0.003690409241244197,-0.7860202193260193,0.0900677740573883,-9.772480964660645
735186248000,-0.0010200508404523134,-0.00051989866187796,0.002360397484153509,-0.7682284116744995,-0.09107387065887451,-9.778602600097656
735193297000,0.0010955370962619781,0.0019788099452853203,-0.0005771019496023655,-0.7590076923370361,0.037523359060287476,-9.797215461730957
735207107000,0.0001307612401433289,9.747721196617931e-05,-0.003649645484983921,-0.7915167808532715,0.0993785560131073,-9.780050277709961
735214079000,-0.001052837003953755,-0.0009823904838413,0.0023571611382067204,-0.7693507075309753,-0.09038698673248291,-9.77894401550293
735220969000,0.001073426683433354,0.0014544118894264102,-0.0005821341765113175,-0.7594462633132935,0.03748098015785217,-9.795975685119629
735228114000,-2.160482108592987e-05,0.0011805207468569279,-0.0007441618945449591,-0.7822978496551514,0.009454399347305298,-9.790244102478027
735234858000,-0.00022695906227454543,0.0007475671009160578,-0.0009692910243757069,-0.783011794090271,0.004969686269760132,-9.786733627319336
735248834000,0.0011710117105394602,0.00035623484291136265,-0.0005470200558193028,-0.7615858316421509,0.04867124557495117,-9.7950439453125
735255691000,-0.00029805267695337534,0.00024102494353428483,-0.001022840617224574,-0.782674252986908,0.01722651720046997,-9.787384033203125
735262805000,-0.00015802448615431786,-0.002062006387859583,0.002531989011913538,-0.793978750705719,-0.06151968240737915,-9.758766174316406
735269622000,0.00019052141578868032,-0.0006680681835860014,-0.0036604981869459152,-0.7858237028121948,0.09748619794845581,-9.766678810119629
735276592000,-0.0010101801017299294,-0.00107906898483634,0.0023626876063644886,-0.7649094462394714,-0.0905982255935669,-9.770760536193848
735290476000,-0.000988808460533619,-0.00023897446226328611,0.002357319463044405,-0.7677885890007019,-0.09094208478927612,-9.777756690979004
735297442000,0.0010904704686254263,0.002218300476670265,-0.0005784436943940818,-0.7590351104736328,0.03770175576210022,-9.797496795654297
735304316000,0.00011191643716301769,-0.0001993976766243577,0.002732850145548582,-0.7971301078796387,-0.049955159425735474,-9.767260551452637
735311353000,-1.8158694729208946e-05,0.00030624103965237737,-0.003842733334749937,-0.7935048341751099,0.10619485378265381,-9.781033515930176
735325206000,0.0010723855812102556,0.001543699880130589,-0.0005797382327727973,-0.7591066360473633,0.03670337796211243,-9.797906875610352
735332104000,-2.5260960683226585e-06,0.0011812413576990366,-0.0007470500422641635,-0.7826504111289978,0.009407371282577515,-9.790457725524902
735339023000,-3.527384251356125e-06,-0.0012667131377384067,0.0025598707143217325,-0.7967419624328613,-0.05641961097717285,-9.763465881347656
735346102000,0.00018572344561107457,-0.0005614988040179014,-0.00365803437307477,-0.7899929285049438,0.09868025779724121,-9.777029037475586
735352953000,-0.0010527324629947543,-0.0015005342429503798,0.002364394022151828,-0.7681846618652344,-0.09033021330833435,-9.774822235107422
735366863000,-5.767960101366043e-05,0.0011214425321668386,-0.0007378569571301341,-0.7818931937217712,0.009638220071792603,-9.788578033447266
735373746000,0.00017002993263304234,-0.0012452010996639729,0.0027622473426163197,-0.7947862148284912,-0.06100308895111084,-9.762214660644531
735380745000,8.759816410019994e-05,-0.00037501423503272235,-0.003846406238153577,-0.791400134563446,0.10666227340698242,-9.774901390075684
735387645000,-0.0010849973186850548,-0.001213309122249484,0.0023403053637593985,-0.7666242122650146,-0.09333544969558716,-9.77537727355957
735394631000,0.0010816518915817142,0.0015631939750164747,-0.0005765606765635312,-0.7572411298751831,0.0369202196598053,-9.791801452636719
735408535000,0.00013492885045707226,-0.0011834015604108572,0.002768621314316988,-0.7952821254730225,-0.06074613332748413,-9.762336730957031
735415548000,7.242905849125236e-05,-0.0003259637742303312,-0.0038420238997787237,-0.7915100455284119,0.10658124089241028,-9.776823043823242
735422403000,-0.0010299814166501164,-0.0013159328373149037,0.002424613805487752,-0.7671583890914917,-0.0951373279094696,-9.775713920593262
735429366000,0.0011164933675900102,0.0015272028977051377,-0.0005740349879488349,-0.7570953369140625,0.038412272930145264,-9.792640686035156
735436260000,-9.19996527954936e-05,0.0011606526095420122,-0.0007337683346122503,-0.7824079990386963,0.010091453790664673,-9.788363456726074
735450180000,8.121160499285907e-05,-0.0003127287491224706,-0.0038446984253823757,-0.7911654114723206,0.10662722587585449,-9.77663516998291
735457184000,-0.0009294266346842051,-0.0014028052100911736,0.0025424708146601915,-0.7663595676422119,-0.09767952561378479,-9.774906158447266
735464084000,0.0009587733075022697,0.0015521307941526175,-0.0007703655865043402,-0.7589480876922607,0.045084238052368164,-9.792049407958984
735471022000,-0.0003014345420524478,0.0013148030266165733,-0.0009544766508042812,-0.7819298505783081,0.011050999164581299,-9.789225578308105
735477963000,0.00010857381857931614,-0.0011772102443501353,0.0027326513081789017,-0.7936931252479553,-0.0653754472732544,-9.762139320373535
735491894000,-0.0010723647428676486,-0.0012379831168800592,0.002257132902741432,-0.7684265375137329,-0.08906382322311401,-9.77665901184082
735498761000,0.0008232685504481196,0.0015612137503921986,-0.0007788403308950365,-0.7580749988555908,0.04042515158653259,-9.79268741607666
735505730000,-8.824077667668462e-05,-0.0007322662859223783,0.0025856068823486567,-0.7960578203201294,-0.05136770009994507,-9.764663696289062
735512756000,0.00012716525816358626,9.025156032294035e-06,-0.00365249696187675,-0.7895851135253906,0.09877309203147888,-9.776083946228027
735526750000,0.00024749478325247765,0.0006041401065886021,-0.0036894415970891714,-0.7857397794723511,0.09019440412521362,-9.772992134094238
735533516000,-0.001001507043838501,-0.00047328422078862786,0.00235894531942904,-0.7683915495872498,-0.09096276760101318,-9.77863597869873
735540428000,0.0010852122213691473,0.001986199291422963,-0.0005767527618445456,-0.7591850757598877,0.03765738010406494,-9.797658920288086
735547425000,-6.057228893041611e-05,0.0015178130706772208,-0.000736555433832109,-0.7831196784973145,0.009714752435684204,-9.790070533752441
735561340000,0.0010334127582609653,0.0006412860238924623,-0.0005548011977225542,-0.7635833024978638,0.04576295614242554,-9.801105499267578
735568241000,-9.277812205255032e-05,0.00031260447576642036,-0.0007386076613329351,-0.7822843790054321,0.01025235652923584,-9.788375854492188
735575246000,-0.000307445356156677,4.154193447902799e-06,-0.0009619859047234058,-0.7819406986236572,0.005001932382583618,-9.78460693359375
735582151000,7.899338379502296e-05,-0.002348091918975115,0.0027441747952252626,-0.7924240827560425,-0.06567355990409851,-9.759310722351074
735596080000,-0.0008799267234280705,-0.0013030740665271878,0.0025384980253875256,-0.7630088329315186,-0.0976727306842804,-9.769287109375
735602949000,0.0005623947945423424,-0.0011799600906670094,-1.2603704817593098e-05,-0.7999626398086548,0.03222861886024475,-9.744345664978027
735610046000,0.00044892984442412853,0.003856922034174204,0.002342959400266409,-0.7021089792251587,-0.031565338373184204,-9.834887504577637
735616873000,-5.09486417286098e-05,0.0007569051813334227,-0.003958940505981445,-0.8410696983337402,0.09952056407928467,-9.74964714050293
735623787000,-0.0011515833903104067,-0.0007353714318014681,0.002326640533283353,-0.7689566016197205,-0.09578430652618408,-9.778996467590332
735637669000,-0.0010465243831276894,-0.0008312823483720422,0.0023638794664293528,-0.7690091729164124,-0.0910068154335022,-9.77987289428711
735644682000,0.0010976593475788832,0.0016812061658129096,-0.0005802329978905618,-0.7589263916015625,0.03746575117111206,-9.798643112182617
735651579000,0.00021709944121539593,-0.000712740293238312,0.0028068237006664276,-0.7968975305557251,-0.05181020498275757,-9.767050743103027
735658555000,1.8345621356274933e-05,-0.00019746835459955037,-0.0038414220325648785,-0.7933642864227295,0.10775941610336304,-9.779067993164062
735672502000,0.000956880277954042,0.0015936160925775766,-0.0007684601587243378,-0.7591954469680786,0.04484274983406067,-9.794332504272461
735679483000,-0.00032900949008762836,0.0012037389678880572,-0.0009476784034632146,-0.783005952835083,0.011011183261871338,-9.788777351379395
735686374000,-0.00011287792585790157,-0.001215783879160881,0.0025370281655341387,-0.7949497699737549,-0.0608384907245636,-9.762444496154785
735693334000,0.0001986208080779761,-0.000412602792493999,-0.0036620083265006542,-0.789518415927887,0.09779274463653564,-9.7752103805542
735707190000,0.0010739723220467567,0.0015431662322953343,-0.000577170867472887,-0.7572115659713745,0.03753691911697388,-9.792346000671387
735714219000,-0.0002054949291050434,0.001319049159064889,-0.0009433245868422091,-0.7831892371177673,0.013950198888778687,-9.7893705368042
735721153000,-0.00010488135740160942,-0.0011723893694579601,0.0025391888339072466,-0.7954378128051758,-0.06004980206489563,-9.762084007263184
735728097000,0.00019391116802580655,-0.00040086149238049984,-0.003661268623545766,-0.7896295189857483,0.0978718101978302,-9.775389671325684
735741955000,0.0010702487779781222,0.0015150931430980563,-0.0005741743952967227,-0.7573437094688416,0.0375555157661438,-9.792336463928223
735748769000,-0.0002124293241649866,0.001308377948589623,-0.0009418482659384608,-0.7830688953399658,0.013991236686706543,-9.789379119873047
735755719000,-0.00010214094072580338,-0.0011677396250888705,0.0025385364424437284,-0.7953165769577026,-0.06007006764411926,-9.762136459350586
735762721000,0.00019918128964491189,-0.00040121719939634204,-0.003661906346678734,-0.7896113395690918,0.09785476326942444,-9.775434494018555
735776640000,0.0010790883097797632,0.0015218312619253993,-0.0005777823971584439,-0.7571712732315063,0.03748899698257446,-9.792312622070312
735783496000,-2.7052592486143112e-06,0.0012640918139368296,-0.0007478302577510476,-0.781894862651825,0.00950804352760315,-9.78936767578125
735790450000,-4.5996042899787426e-05,-0.0011653386754915118,0.002566335489973426,-0.7964068055152893,-0.05629384517669678,-9.762324333190918
735797441000,0.0001771095849107951,-0.00042756833136081696,-0.003656323067843914,-0.789657473564148,0.09857293963432312,-9.77576732635498
735811394000,0.00106803176458925,0.0014994766097515821,-0.0005761389038525522,-0.7568612098693848,0.037425339221954346,-9.791686058044434
735818244000,-3.192422445863485e-05,0.0012691500596702099,-0.0007392078987322748,-0.7816798686981201,0.009494215250015259,-9.789358139038086
735825339000,-5.735654849559069e-05,-0.0011315466836094856,0.0025692780036479235,-0.7961612343788147,-0.056090205907821655,-9.762446403503418
735832153000,0.00018762823310680687,-0.00030990588129498065,-0.003647195640951395,-0.7891722917556763,0.0983593761920929,-9.776710510253906
735839093000,-0.0010877654422074556,-0.001338960719294846,0.0023696827702224255,-0.768487811088562,-0.09004154801368713,-9.775388717651367
735852977000,-0.0010560790542513132,-0.0005852894391864538,0.0023682608734816313,-0.7676334381103516,-0.09080994129180908,-9.777294158935547
735860143000,0.0013141327071934938,0.00018523423932492733,0.0030755996704101562,-0.7733546495437622,-0.023809880018234253,-9.772873878479004
735866866000,0.0002374153700657189,0.0006930759409442544,-0.0035945666022598743,-0.7915468215942383,0.11184540390968323,-9.782831192016602
735873806000,-0.0010795752750709653,-0.00035917654167860746,0.0023643700405955315,-0.770302414894104,-0.08835151791572571,-9.779563903808594
735887742000,-0.00025411020033061504,0.0014772862195968628,-0.0009442928712815046,-0.7841490507125854,0.013902157545089722,-9.791176795959473
735894675000,-0.00033454480580985546,0.0008852843311615288,-0.000983072561211884,-0.782749354839325,0.0011819005012512207,-9.787586212158203
735901593000,0.00012441352009773254,-0.0017171638319268823,0.002730878535658121,-0.7941103577613831,-0.06629645824432373,-9.763236999511719
735908572000,0.00011093978537246585,-0.0008401054074056447,-0.0038525729905813932,-0.791573166847229,0.10597911477088928,-9.775032997131348
735915524000,-0.0008900199318304658,-0.0016253524227067828,0.002540230518206954,-0.7648171782493591,-0.0978403091430664,-9.773513793945312
735929397000,-0.0003011649241670966,0.0012224172241985798,-0.0009546246146783233,-0.7821134328842163,0.011186361312866211,-9.788536071777344
735936302000,0.00011688692029565573,-0.001226798864081502,0.0027331127785146236,-0.7936283349990845,-0.06542730331420898,-9.761714935302734
735943450000,0.0002657005097717047,-0.0003389750199858099,-0.0037356631364673376,-0.7900220155715942,0.10167446732521057,-9.77490234375
735950330000,-0.0010323213646188378,-0.001183843589387834,0.0023008857388049364,-0.768102765083313,-0.09007865190505981,-9.775790214538574
735964221000,-0.0002916431985795498,0.001349496771581471,-0.0009564175270497799,-0.7819181084632874,0.010169446468353271,-9.789244651794434
735971126000,8.535617962479591e-05,-0.001180674065835774,0.0027384937275201082,-0.7939489483833313,-0.06529760360717773,-9.76203727722168
735978194000,0.0002994711394421756,-0.00034862427855841815,-0.003645553719252348,-0.7904375791549683,0.1013384461402893,-9.776366233825684
735985073000,-0.0010128208668902516,-0.0012588221579790115,0.0023625530302524567,-0.7683395147323608,-0.08954772353172302,-9.77664852142334
735998949000,-4.590529715642333e-05,-0.0007138351211324334,0.0026176718529313803,-0.7970688343048096,-0.047160983085632324,-9.765396118164062
736005860000,0.0001314897817792371,5.694727587979287e-05,-0.0036462831776589155,-0.7895246148109436,0.09930533170700073,-9.77708625793457
736012895000,-0.0010951535077765584,-0.0010541726369410753,0.0023638042621314526,-0.7692371606826782,-0.09018844366073608,-9.776918411254883
736019785000,0.0010745134204626083,0.00171018170658499,-0.0005790790892206132,-0.7574961185455322,0.037289053201675415,-9.7951078414917
736026738000,-2.4039531126618385e-05,0.001313617336563766,-0.0007441957714036107,-0.7827250957489014,0.009519577026367188,-9.789270401000977
736040595000,0.00011889403685927391,-0.001692608231678605,0.0027346110437065363,-0.7936950325965881,-0.06560814380645752,-9.762411117553711
736047559000,0.0003276110510341823,-0.0007864137878641486,-0.0036509244237095118,-0.7898411750793457,0.10139241814613342,-9.773768424987793
736054477000,-0.001068033161573112,-0.001486646244302392,0.002373817842453718,-0.7669504880905151,-0.08932170271873474,-9.773660659790039
736061439000,0.0010644024005159736,0.0015604424988850951,-0.0005701276240870357,-0.7556859254837036,0.037511199712753296,-9.790947914123535
736075341000,0.00012607072130776942,0.00013145137927494943,-0.003645409597083926,-0.7891302704811096,0.09930968284606934,-9.776400566101074
736082240000,-0.0010268675396218896,-0.0009158713510259986,0.00235553877428174,-0.7688829898834229,-0.09046941995620728,-9.77764892578125
736089185000,0.0010594493942335248,0.0017180456779897213,-0.0005781115032732487,-0.7580525875091553,0.037619441747665405,-9.795437812805176
736096200000,-2.7077854610979557e-05,0.0013135569170117378,-0.0007429611869156361,-0.7826837301254272,0.009451597929000854,-9.78931713104248
736103144000,-7.881515193730593e-05,-0.001152354758232832,0.0025672856718301773,-0.7966647148132324,-0.05618277192115784,-9.762871742248535
736117026000,-0.0010459439363330603,-0.0013914017472416162,0.002362895291298628,-0.76834636926651,-0.09039285778999329,-9.776001930236816
736123927000,0.0010643515270203352,0.0014439249644055963,-0.0005759850610047579,-0.7569117546081543,0.03756198287010193,-9.792283058166504
736130959000,-3.1537143513560295e-05,0.0011507755843922496,-0.0007405671058222651,-0.7820250391960144,0.009502232074737549,-9.7886962890625
736137823000,-1.8257764168083668e-05,-0.0011905431747436523,0.0025602905079722404,-0.7959719896316528,-0.05640855431556702,-9.762474060058594
736151680000,-0.0010721299331635237,-0.0013047446263954043,0.0023686005733907223,-0.767525315284729,-0.09031721949577332,-9.774975776672363
736158734000,0.0002385936677455902,0.0004340240848250687,-0.0036878567188978195,-0.7850497961044312,0.09042331576347351,-9.770123481750488
736165591000,-0.001009034225717187,-0.0005004006088711321,0.0023597609251737595,-0.7675816416740417,-0.09095808863639832,-9.777715682983398
736172538000,0.0013247918104752898,0.00022326631005853415,0.003071656683459878,-0.7736129760742188,-0.023672372102737427,-9.773544311523438
736186418000,-0.001065540942363441,-0.0003728225128725171,0.0023622666485607624,-0.7703184485435486,-0.08846944570541382,-9.779608726501465
736193418000,0.0010379654122516513,0.0018490486545488238,-0.0005785447428934276,-0.7606782913208008,0.03761458396911621,-9.800312995910645
736200307000,-0.0002438864903524518,0.0014511223416775465,-0.0009460216970182955,-0.7844154834747314,0.013982266187667847,-9.790901184082031
736207243000,-0.0003151407581754029,0.0008711630944162607,-0.0009865526808425784,-0.7827264070510864,0.0011608600616455078,-9.787668228149414
736221172000,0.0009664263343438506,0.0002911508781835437,-0.0007546978304162621,-0.7638760209083557,0.05328819155693054,-9.796756744384766
736228204000,-0.001091123092919588,-0.0008726962842047215,-0.004110322799533606,-0.8117793798446655,0.06507909297943115,-9.76618766784668
736235166000,-0.0009021684527397156,-0.0018941638991236687,0.0024908147752285004,-0.7604602575302124,-0.10966986417770386,-9.76703929901123
736242108000,0.0013004428474232554,-0.0004703004378825426,0.002882414497435093,-0.7726121544837952,-0.017258763313293457,-9.764998435974121
736248986000,0.00015389121836051345,0.0004113040922675282,-0.0035992085468024015,-0.7880414128303528,0.10910838842391968,-9.777329444885254
736262857000,0.0010464803781360388,0.002079424913972616,-0.0005776459001936018,-0.7588701844215393,0.03758281469345093,-9.796760559082031
736269764000,-4.9477675929665565e-06,0.0016381702153012156,-0.0007478939951397479,-0.7831001281738281,0.009334474802017212,-9.790546417236328
736277005000,-0.00023044220870360732,0.0010825430508702993,-0.0009715634514577687,-0.7836737632751465,0.005057841539382935,-9.788082122802734
736283649000,0.00015613657888025045,-0.0015701098600402474,0.0027293774764984846,-0.7945791482925415,-0.06556612253189087,-9.763772010803223
736290618000,0.00030909449560567737,-0.0008054320933297276,-0.0036502995062619448,-0.7908239960670471,0.10160654783248901,-9.777018547058105
736304485000,0.0010600986424833536,0.0013738193083554506,-0.00057334074517712,-0.7557522654533386,0.037596672773361206,-9.790550231933594
736311461000,-0.00021457730326801538,0.001146194408647716,-0.0009417074616067111,-0.7831611633300781,0.013965100049972534,-9.788346290588379
736318390000,-0.00010397867299616337,-0.0012771732872352004,0.0025395697448402643,-0.7949877977371216,-0.0600849986076355,-9.761383056640625
736325414000,0.00019218480156268924,-0.00033792146132327616,-0.0036590108647942543,-0.7886172533035278,0.09785717725753784,-9.773981094360352
736339198000,0.0010872348211705685,0.0016503342194482684,-0.0005767762777395546,-0.7569313049316406,0.03754439949989319,-9.792803764343262
736346239000,1.0835181456059217e-05,-0.0005773232551291585,0.002608251990750432,-0.7972984910011292,-0.04727533459663391,-9.765789031982422
736353081000,0.00011873814219143242,5.038798553869128e-05,-0.0036466666497290134,-0.7902556657791138,0.09955018758773804,-9.777722358703613
736360377000,-0.0010533176828175783,-0.00103717518504709,0.0023590472992509604,-0.769130289554596,-0.09042796492576599,-9.777488708496094
736367038000,0.0010561954695731401,0.001565279089845717,-0.0005786473047919571,-0.7583265900611877,0.037495702505111694,-9.794400215148926
736380904000,-0.0002572049852460623,0.0007476166356354952,-0.0008750653942115605,-0.7829873561859131,0.0034748613834381104,-9.785860061645508
736387814000,-7.406424265354872e-05,-0.001651838654652238,0.002551696728914976,-0.7946199774742126,-0.05972751975059509,-9.762619972229004
736394868000,0.0002042373234871775,-0.0007423355709761381,-0.003658430417999625,-0.7886819839477539,0.09812420606613159,-9.773164749145508
736401721000,-0.00105539639480412,-0.0014133317163214087,0.0023688392248004675,-0.7664391994476318,-0.09029543399810791,-9.77340316772461
736415609000,0.00021830626064911485,-0.0006423459853976965,0.0028046828228980303,-0.7956128716468811,-0.05180445313453674,-9.76561164855957
736422545000,1.729160430841148e-05,0.00013518574996851385,-0.0038380022160708904,-0.7917202711105347,0.10767966508865356,-9.777290344238281
736429597000,-0.0009359588148072362,-0.0010903667425736785,0.002537395106628537,-0.7672785520553589,-0.09780415892601013,-9.776739120483398
736436425000,0.0009564050706103444,0.0017447791760787368,-0.0007692959043197334,-0.7597084641456604,0.04496011137962341,-9.795281410217285
736443559000,-0.00030005385633558035,0.0013653462519869208,-0.0009556508739478886,-0.7827595472335815,0.011057913303375244,-9.789387702941895
736457314000,-2.4361303076148033e-05,-0.0016048557590693235,0.0025613668840378523,-0.795340895652771,-0.05812680721282959,-9.762890815734863
736464288000,0.0002151678199879825,-0.0006783768767490983,-0.0036602038890123367,-0.7885355949401855,0.09848317503929138,-9.774553298950195
736471150000,-0.0010323767783120275,-0.0014598184498026967,0.0023647912312299013,-0.7670162916183472,-0.09031462669372559,-9.773569107055664
736478221000,0.001088708289898932,0.0014549533370882273,-0.0005729267722927034,-0.7562210559844971,0.03748518228530884,-9.79027271270752
736492051000,0.00022047232778277248,6.674628821201622e-05,-0.003633292159065604,-0.7900454998016357,0.10289183259010315,-9.776285171508789
736498968000,-0.0010376340942457318,-0.0009347728919237852,0.002359236590564251,-0.7688674926757812,-0.08957433700561523,-9.77791690826416
736505880000,0.0002248683013021946,0.000625710585154593,-0.003687582677230239,-0.7860274910926819,0.09053048491477966,-9.773910522460938
736512945000,-0.0009914300171658397,-0.000518519023898989,0.0023557296954095364,-0.7687252759933472,-0.09106993675231934,-9.778322219848633
736526800000,-1.0638730600476265e-05,-0.0004046543617732823,0.002611410804092884,-0.7981652021408081,-0.047192543745040894,-9.766740798950195
736533662000,0.00012029481877107173,6.81484816595912e-05,-0.003647607984021306,-0.7912670373916626,0.09949570894241333,-9.780405044555664
736540650000,-0.001064891810528934,-0.0010866420343518257,0.0023607381153851748,-0.7695853114128113,-0.09040004014968872,-9.778162002563477
736547638000,0.0010643383720889688,0.0014661509776487947,-0.0005770911229774356,-0.7587050199508667,0.03744417428970337,-9.795880317687988
736554490000,-8.051004260778427e-05,0.001096283202059567,-0.0007339246803894639,-0.7826045751571655,0.009657353162765503,-9.78922176361084
736568378000,0.00018671451834961772,-0.000488959951326251,-0.0036581899039447308,-0.7897221446037292,0.09857749938964844,-9.776093482971191
736575395000,-0.0010445205261930823,-0.001370652113109827,0.002362094121053815,-0.7678920030593872,-0.09033477306365967,-9.775238990783691
736582309000,0.0010778529103845358,0.0015013811644166708,-0.0005770496209152043,-0.7568269968032837,0.03749585151672363,-9.791962623596191
736589228000,-5.704537034034729e-05,0.0011674577835947275,-0.0007398565649054945,-0.7823345065116882,0.009700387716293335,-9.788328170776367
736596233000,-5.077302921563387e-05,-0.0011779158376157284,0.0025670290924608707,-0.7960919141769409,-0.05646422505378723,-9.762288093566895
736610141000,-0.0010508035775274038,-0.0012497161515057087,0.002363410545513034,-0.7677226066589355,-0.09031438827514648,-9.775569915771484
736617072000,0.0010779715375974774,0.001544356346130371,-0.0005745273665525019,-0.7571825981140137,0.037442922592163086,-9.792162895202637
736623928000,-1.5494530089199543e-05,0.0012786914594471455,-0.0007419130997732282,-0.7819669842720032,0.009531199932098389,-9.78923511505127
736630950000,-6.284087430685759e-05,-0.0011487730080261827,0.002570897340774536,-0.7964645624160767,-0.05624735355377197,-9.762256622314453
736644882000,-0.0010791902896016836,-0.0013416350120678544,0.0023682829923927784,-0.7684582471847534,-0.0901745855808258,-9.775404930114746
736651719000,0.001071856007911265,0.0015069824876263738,-0.0005739915068261325,-0.7568619251251221,0.03739151358604431,-9.792146682739258
736658720000,-4.8441579565405846e-06,0.0012675481848418713,-0.0007444327347911894,-0.7817976474761963,0.00948593020439148,-9.789398193359375
736665683000,-6.0166697949171066e-05,-0.0011683820048347116,0.0025685762520879507,-0.7964597940444946,-0.056203633546829224,-9.762134552001953
736679618000,-0.0010318157728761435,-0.0012681293301284313,0.0023622410371899605,-0.7676297426223755,-0.09040042757987976,-9.775924682617188
736686445000,0.0010749299544841051,0.0015251034637913108,-0.0005738381296396255,-0.7570698857307434,0.03754383325576782,-9.792421340942383
736693505000,1.3783574104309082e-07,0.0012663576053455472,-0.0007482523215003312,-0.7818825244903564,0.009539812803268433,-9.789297103881836
736700413000,-4.4018495827913284e-05,-0.0011622380698099732,0.002565894741564989,-0.7963614463806152,-0.056285560131073,-9.762298583984375
736707299000,0.0001965701812878251,-0.00043257136712782085,-0.003658485598862171,-0.7896590232849121,0.09849873185157776,-9.775717735290527
736721176000,0.0010737627744674683,0.0014975664671510458,-0.0005767667898908257,-0.7568222284317017,0.03741145133972168,-9.791668891906738
736728259000,0.00018679333152249455,-0.000668879714794457,0.002811945741996169,-0.7954562902450562,-0.05180847644805908,-9.765995025634766
736735114000,0.00022069024271331728,4.683856968767941e-05,-0.003637575777247548,-0.7907814979553223,0.10311353206634521,-9.777533531188965
736742033000,-0.0010869031539186835,-0.0010339084547013044,0.002366213593631983,-0.769303560256958,-0.08946549892425537,-9.777311325073242
736755925000,-0.0009931591339409351,-0.0005281753255985677,0.00235583633184433,-0.768608808517456,-0.09107482433319092,-9.7784423828125
736762953000,0.0010964637622237206,0.0019791063386946917,-0.0005768666742369533,-0.7589292526245117,0.03759446740150452,-9.797898292541504
736769826000,-2.2201682440936565e-05,-0.0004075785109307617,0.0026127297896891832,-0.7983253002166748,-0.047102391719818115,-9.766508102416992
736776811000,0.00011651612294372171,8.245263597927988e-05,-0.003647671779617667,-0.7912740707397461,0.09947124123573303,-9.78039264678955
736783702000,-0.001070212572813034,-0.0010674501536414027,0.0023604200687259436,-0.7696490287780762,-0.09038838744163513,-9.778143882751465
736797628000,-8.638016879558563e-07,0.0011894673807546496,-0.0007462842622771859,-0.7822864055633545,0.009406596422195435,-9.790160179138184
736804509000,-0.0002391503658145666,0.0007298019481822848,-0.0009681835654191673,-0.7831034064292908,0.00510743260383606,-9.78642463684082
736811558000,0.00011059688404202461,-0.0018272576853632927,0.002740208525210619,-0.7939447164535522,-0.06547251343727112,-9.761678695678711
736818401000,0.0011773720616474748,0.00036481861025094986,-0.0005478609818965197,-0.7615121006965637,0.04863438010215759,-9.7948637008667
736825349000,-0.00046954271965660155,0.00027161568868905306,-0.0011338910553604364,-0.7837429046630859,0.020105093717575073,-9.787097930908203
736839273000,0.00021031813230365515,-0.0005614897236227989,-0.003662374336272478,-0.7854167222976685,0.09704214334487915,-9.767282485961914
736846261000,-0.0010126279667019844,-0.0010868783574551344,0.002361586783081293,-0.7654628753662109,-0.09048977494239807,-9.770750045776367
736853143000,0.0002437909133732319,0.0007656675879843533,-0.003685309551656246,-0.784261167049408,0.09057161211967468,-9.76895523071289
736860141000,-0.000991686014458537,-0.00027038779808208346,0.00235726241953671,-0.7680668830871582,-0.09093984961509705,-9.777606964111328
736873950000,0.00019401605823077261,-0.0002241683832835406,0.0028114442247897387,-0.797072172164917,-0.051582396030426025,-9.767107009887695
736880962000,-5.8380537666380405e-06,0.0002728656691033393,-0.003831609385088086,-0.7935101985931396,0.10769334435462952,-9.781004905700684
736887870000,-0.0009324520360678434,-0.0010227076709270477,0.00253679184243083,-0.7679007053375244,-0.09785166382789612,-9.778748512268066
736895078000,0.0009503061883151531,0.00155647995416075,-0.0007742441375739872,-0.7613294124603271,0.04508981108665466,-9.798044204711914
736908678000,-9.509199298918247e-05,-0.001274727052077651,0.002532875631004572,-0.7950562238693237,-0.06087261438369751,-9.763147354125977
736915695000,0.00021477785776369274,-0.000512912985868752,-0.0036634537391364574,-0.7897472977638245,0.09775245189666748,-9.776093482971191
736922576000,-0.001038178219459951,-0.0013959859497845173,0.002359243342652917,-0.767839789390564,-0.09027647972106934,-9.77536392211914
736929602000,0.0010771530214697123,0.001512053539045155,-0.0005768602131865919,-0.7565897703170776,0.037487030029296875,-9.792193412780762
736943511000,-7.640523836016655e-05,-0.0011763146612793207,0.0025351999793201685,-0.7948753833770752,-0.06029751896858215,-9.76226806640625
736950343000,0.0001816067670006305,-0.0003903745673596859,-0.0036596660502254963,-0.7894959449768066,0.09801262617111206,-9.774831771850586
736957274000,-0.0010131343733519316,-0.0012154970318078995,0.0023593532387167215,-0.7675107717514038,-0.09055468440055847,-9.775652885437012
736964339000,0.0010880394838750362,0.0015223691007122397,-0.0005755940801464021,-0.7574280500411987,0.037554532289505005,-9.791988372802734
736971171000,-0.00022509053815156221,0.0013322164304554462,-0.0009406416211277246,-0.7829532027244568,0.014124691486358643,-9.789432525634766
736985057000,0.00019227415032219142,-0.00031586570548824966,-0.0036606122739613056,-0.7893421649932861,0.09786835312843323,-9.776352882385254
736991997000,-0.0010078848572447896,-0.0012602591887116432,0.0023570444900542498,-0.768136739730835,-0.09050431847572327,-9.77613639831543
736999013000,0.0010826308280229568,0.001501327846199274,-0.0005779400235041976,-0.7572810649871826,0.037610918283462524,-9.7926025390625
737005906000,-0.000278141291346401,0.0012093557743355632,-0.0009356306400150061,-0.7833959460258484,0.014282464981079102,-9.788422584533691
737019796000,0.00020153465447947383,-0.0003954947169404477,-0.0036616527941077948,-0.7895239591598511,0.09784671664237976,-9.775076866149902
737026879000,-0.0010343447793275118,-0.0012349947355687618,0.002358880126848817,-0.767481803894043,-0.09034240245819092,-9.775897979736328
737033746000,0.0010672371136024594,0.0015188477700576186,-0.0005769238923676312,-0.7572553157806396,0.03756415843963623,-9.792081832885742
737040624000,-1.3282638974487782e-05,0.0012782149715349078,-0.0007448254036717117,-0.7817639112472534,0.009461522102355957,-9.789327621459961
737054545000,0.00018949795048683882,-0.00033958841231651604,-0.0036598569713532925,-0.7893422842025757,0.09854587912559509,-9.776666641235352
737061483000,-0.0010752949165180326,-0.0013478382024914026,0.002366806147620082,-0.7683357000350952,-0.09025073051452637,-9.775411605834961
737068421000,0.00023160572163760662,0.00037584814708679914,-0.0036868785973638296,-0.7851276397705078,0.09039962291717529,-9.770259857177734
737075337000,-0.0010322900488972664,-0.0005749118863604963,0.002365415683016181,-0.7675561904907227,-0.09093812108039856,-9.777277946472168
737082346000,0.0013247805181890726,0.00019215128850191832,0.003074557753279805,-0.7733714580535889,-0.023760050535202026,-9.773011207580566
737096253000,-0.001069872174412012,-0.0003632268635556102,0.0023625819012522697,-0.7703399062156677,-0.08844229578971863,-9.779447555541992
737103142000,0.0010265263263136148,0.0018416540697216988,-0.0005775622557848692,-0.7607332468032837,0.03764694929122925,-9.79998779296875
737110119000,-0.00024437298998236656,0.0014732953859493136,-0.0009455461404286325,-0.7842347025871277,0.013928055763244629,-9.791032791137695
737117053000,-0.00032481661764904857,0.0008833797182887793,-0.0009851822396740317,-0.7827426195144653,0.0011979937553405762,-9.787575721740723
737123976000,0.0001232359791174531,-0.0017293236451223493,0.0027308915741741657,-0.7941501140594482,-0.0662686824798584,-9.763107299804688
737137872000,-0.0008851498132571578,-0.0016176622593775392,0.002538930159062147,-0.7648328542709351,-0.09784737229347229,-9.7734956741333
737144853000,0.00098183483351022,0.0014619501307606697,-0.0007713059894740582,-0.758398175239563,0.04515951871871948,-9.790093421936035
737151736000,-0.0002977370750159025,0.0012190802954137325,-0.0009550279355607927,-0.782099723815918,0.01116412878036499,-9.788479804992676
737158668000,0.00013068073894828558,-0.0012178542092442513,0.002732351887971163,-0.7935649156570435,-0.06548166275024414,-9.761786460876465
737172601000,-0.0010293283266946673,-0.0011956458911299706,0.002367818495258689,-0.7678321599960327,-0.08959189057350159,-9.775792121887207
737179626000,0.0010534697212278843,0.0015445846365764737,-0.0005720598273910582,-0.7574584484100342,0.03773358464241028,-9.791951179504395
737186489000,-0.0002398850629106164,0.0013468170072883368,-0.0009373476495966315,-0.7830333113670349,0.014018982648849487,-9.78935718536377
737193486000,-0.00013945542741566896,-0.0011377081973478198,0.0025471870321780443,-0.7953535318374634,-0.060077548027038574,-9.762033462524414
737207306000,-0.0010213229106739163,-0.0012413612566888332,0.0023601555731147528,-0.7681442499160767,-0.09045624732971191,-9.776342391967773
737214352000,0.0010719078127294779,0.0014867741847410798,-0.0005749444244429469,-0.7575145363807678,0.037601619958877563,-9.792407035827637
737221193000,-0.00021577533334493637,0.001300331554375589,-0.000941854843404144,-0.7829434275627136,0.01401221752166748,-9.789480209350586
737228212000,-8.198432624340057e-05,-0.0011567057808861136,0.0025387497153133154,-0.7952148914337158,-0.060209572315216064,-9.762269973754883
737235101000,0.00019516574684530497,-0.00041832681745290756,-0.003661462804302573,-0.7897235155105591,0.09798869490623474,-9.775421142578125
737249035000,0.0010855933651328087,0.0014971507480368018,-0.0005752171855419874,-0.7573448419570923,0.03754526376724243,-9.79221248626709
737255938000,0.00021533359540626407,-0.0006932495161890984,0.002806947799399495,-0.7956840991973877,-0.051788538694381714,-9.765924453735352
737263041000,2.3803164367564023e-05,-1.7758080502972007e-05,-0.0038404844235628843,-0.7923399209976196,0.10770058631896973,-9.776763916015625
737269817000,-0.0009498507715761662,-0.00113924581091851,0.00253991037607193,-0.7667974829673767,-0.09776908159255981,-9.77691650390625
737276891000,0.0009473887039348483,0.0017540148692205548,-0.0007681446732021868,-0.7594712972640991,0.04495856165885925,-9.795075416564941
737290632000,-0.0001398388994857669,0.0007995623745955527,-0.0007831627153791487,-0.7808292508125305,-0.0038531720638275146,-9.785951614379883
737297710000,-4.049914423376322e-05,-0.0016075423918664455,0.002563239075243473,-0.7956085205078125,-0.05793410539627075,-9.762557983398438
737304581000,0.0002213267725892365,-0.0006647258996963501,-0.003658163594081998,-0.7885085940361023,0.098359614610672,-9.774521827697754
737311583000,-0.0010357819264754653,-0.00144479819573462,0.0023651898372918367,-0.7670779228210449,-0.0902310311794281,-9.77366828918457
737325391000,0.00021732342429459095,-0.0006806721794418991,0.0028052262496203184,-0.7952420711517334,-0.051839232444763184,-9.765743255615234
737332348000,1.7167767509818077e-05,0.00014019249647390097,-0.00383724900893867,-0.7914626002311707,0.1076735258102417,-9.777009963989258
737339311000,-0.0009356404189020395,-0.0010891748825088143,0.0025373150128871202,-0.76728355884552,-0.09778943657875061,-9.776497840881348
737346260000,0.00011502578854560852,0.0006477435817942023,-0.003876119153574109,-0.7877210974693298,0.09786418080329895,-9.773445129394531
737360204000,0.0009824743028730154,0.00201662490144372,-0.0007713562808930874,-0.7613130211830139,0.04530438780784607,-9.797789573669434
737367098000,-8.857925422489643e-05,-0.0003876306291203946,0.002592299599200487,-0.7971435785293579,-0.0502743124961853,-9.766716957092285
737373967000,0.00011589034693315625,0.00010313527309335768,-0.003651432693004608,-0.7913147807121277,0.09891417622566223,-9.780266761779785
737380971000,-0.0010279323905706406,-0.0009911444503813982,0.0023542193230241537,-0.7693603038787842,-0.09061574935913086,-9.778822898864746
737387858000,0.0010616254294291139,0.0014718719758093357,-0.0005810779402963817,-0.7592649459838867,0.03762814402580261,-9.796216011047363
737401821000,-3.21059487760067e-05,-0.0012406149180606008,0.002522096037864685,-0.796343207359314,-0.055959224700927734,-9.763323783874512
737408751000,0.00017289863899350166,-0.0005069643375463784,-0.003661648603156209,-0.7898737192153931,0.09806379675865173,-9.77602481842041
737415790000,-0.0010467693209648132,-0.001371069229207933,0.0023619546554982662,-0.7678239345550537,-0.09048214554786682,-9.775165557861328
737422654000,0.0010812027612701058,0.0015054343966767192,-0.0005775209283456206,-0.756894588470459,0.037471383810043335,-9.79187297821045
737436532000,-6.605812814086676e-05,-0.0011816159822046757,0.002568111289292574,-0.7962881326675415,-0.056355834007263184,-9.762112617492676
737443603000,0.00019540442735888064,-0.0003910278028342873,-0.00365574867464602,-0.7895460724830627,0.09837839007377625,-9.7750825881958
737450500000,-0.001050935941748321,-0.0012335628271102905,0.0023638373240828514,-0.7677326202392578,-0.0902445912361145,-9.775677680969238
737457390000,0.0010674723889678717,0.0015489421784877777,-0.0005776287871412933,-0.7573319673538208,0.03756174445152283,-9.792122840881348
737464347000,-2.6452122256159782e-05,0.0012825627345591784,-0.000740886724088341,-0.7820686101913452,0.009467869997024536,-9.789169311523438
737478212000,0.00018948524666484445,-0.0003259408986195922,-0.0036578478757292032,-0.7894579172134399,0.09838423132896423,-9.776544570922852
737485159000,-0.0010059602791443467,-0.0012451732764020562,0.0023557015229016542,-0.7681694626808167,-0.0904410183429718,-9.77638053894043
737492093000,0.001081775757484138,0.0014962557470425963,-0.0005754464655183256,-0.757474422454834,0.037569135427474976,-9.792637825012207
737499092000,-6.823532748967409e-05,0.0011603616876527667,-0.0007390100508928299,-0.7823621034622192,0.009800225496292114,-9.7884521484375
737506012000,-4.9323891289532185e-05,-0.0011817899066954851,0.0025667690206319094,-0.7960811853408813,-0.056518614292144775,-9.762426376342773
737519875000,-0.0010392579715698957,-0.0012523947516456246,0.0023618079721927643,-0.7675998210906982,-0.09034952521324158,-9.775721549987793
737526852000,0.0010810612002387643,0.0015428069746121764,-0.0005747424438595772,-0.757146954536438,0.03747159242630005,-9.792272567749023
737533826000,-1.4465069398283958e-05,0.0012643270893022418,-0.0007423729985021055,-0.7820349931716919,0.009548038244247437,-9.789080619812012
737540742000,-5.744420923292637e-05,-0.001144896843470633,0.0025677296798676252,-0.796378493309021,-0.05622583627700806,-9.762341499328613
737554621000,-0.001071416074410081,-0.0013405594509094954,0.0023664666805416346,-0.7684468030929565,-0.09011459350585938,-9.775463104248047
737561681000,0.0010650489712134004,0.0014978009276092052,-0.0005734727601520717,-0.757045328617096,0.03718653321266174,-9.79198169708252
737568527000,1.1522788554430008e-06,0.0012471054214984179,-0.0007495534373447299,-0.7819606065750122,0.009490728378295898,-9.789253234863281
737575459000,-4.172767512500286e-05,-0.0011543096043169498,0.002564958995208144,-0.7961858510971069,-0.05628630518913269,-9.762426376342773
737582472000,0.0002019172825384885,-0.0004219604597892612,-0.0036591088864952326,-0.7896878719329834,0.09847435355186462,-9.775653839111328
737596476000,0.0010782723547890782,0.0015338659286499023,-0.0005769683048129082,-0.7570127248764038,0.03756037354469299,-9.792530059814453
737603278000,0.00013239419786259532,-0.0007760654552839696,0.0028163001406937838,-0.7961986064910889,-0.05153551697731018,-9.76476764678955
737610243000,2.912827767431736e-06,9.262391540687531e-05,-0.003834135364741087,-0.7913399934768677,0.10740694403648376,-9.777314186096191
737617213000,-0.0009415190434083343,-0.001098474720492959,0.0025350740179419518,-0.767145574092865,-0.09772533178329468,-9.776830673217773
737631175000,-0.0003056313144043088,0.0013704707380384207,-0.0009553284617140889,-0.7828212976455688,0.011077195405960083,-9.78923511505127
737638175000,-9.122950723394752e-05,0.0008587034535594285,-0.0007920890348032117,-0.7805741429328918,-0.003977596759796143,-9.78663444519043
737645191000,7.615191861987114e-06,-0.0015816004015505314,0.0025525307282805443,-0.7957573533058167,-0.057859212160110474,-9.762791633605957
737652161000,0.00021995522547513247,-0.0008034856873564422,-0.0036573440302163363,-0.7892868518829346,0.09838572144508362,-9.773740768432617
737658879000,-0.0010506062535569072,-0.0014638770371675491,0.002365823369473219,-0.7663954496383667,-0.09014859795570374,-9.773645401000977
737672751000,0.0002171637606807053,-0.0006726258434355259,0.0028086393140256405,-0.7952606081962585,-0.05190318822860718,-9.765674591064453
737679796000,0.00021038425620645285,7.723411545157433e-05,-0.0036352435126900673,-0.7905009388923645,0.10325172543525696,-9.776711463928223
737686641000,-0.00108048552647233,-0.0009991572005674243,0.0023652755189687014,-0.769249677658081,-0.08950266242027283,-9.777152061462402
737693630000,0.00022622098913416266,0.0005979352281428874,-0.0036882897838950157,-0.7859290242195129,0.09038957953453064,-9.773282051086426
737700501000,-0.0010160270612686872,-0.0005113728111609817,0.0023592321667820215,-0.7685325145721436,-0.09098759293556213,-9.778398513793945
737714529000,-4.2076571844518185e-05,-0.0003931006067432463,0.002619636943563819,-0.7983266115188599,-0.04715663194656372,-9.766486167907715
737721444000,0.0001320635637966916,7.524469401687384e-05,-0.0036497986875474453,-0.7913659811019897,0.09941980242729187,-9.780167579650879
737731685000,-0.0010350651573389769,-0.000996511080302298,0.0023580000270158052,-0.7692586779594421,-0.09049519896507263,-9.778996467590332
737738352000,0.0010610270546749234,0.001480097183957696,-0.0005778102786280215,-0.7591642141342163,0.03759944438934326,-9.796273231506348
737742369000,-6.412377115339041e-05,0.0011130963684991002,-0.000736755202524364,-0.7826656103134155,0.009581685066223145,-9.789373397827148
737756150000,0.00018760174862109125,-0.0004827611264772713,-0.0036581833846867085,-0.7896438241004944,0.09851846098899841,-9.77623176574707
737763179000,-0.0010493850568309426,-0.0013804287882521749,0.0023627281188964844,-0.7680280208587646,-0.09031745791435242,-9.775150299072266
737770083000,0.0010787115897983313,0.001498103141784668,-0.0005771506112068892,-0.7568769454956055,0.03742778301239014,-9.791823387145996
737777101000,-5.012797191739082e-05,0.0011755658779293299,-0.0007422345806844532,-0.7823569774627686,0.009700179100036621,-9.788406372070312
737784008000,-4.676624666899443e-05,-0.0011703449999913573,0.0025662726256996393,-0.7960780262947083,-0.05628445744514465,-9.762358665466309
737784008000,-4.676624666899443e-05,-0.0011703449999913573,0.0025662726256996393,-0.7960780262947083,-0.05628445744514465,-9.762358665466309
737784008000,-4.676624666899443e-05,-0.0011703449999913573,0.0025662726256996393,-0.7960780262947083,-0.05628445744514465,-9.762358665466309
737784008000,-4.676624666899443e-05,-0.0011703449999913573,0.0025662726256996393,-0.7960780262947083,-0.05628445744514465,-9.762358665466309
737784008000,-4.676624666899443e-05,-0.0011703449999913573,0.0025662726256996393,-0.7960780262947083,-0.05628445744514465,-9.762358665466309
737784008000,-4.676624666899443e-05,-0.0011703449999913573,0.0025662726256996393,-0.7960780262947083,-0.05628445744514465,-9.762358665466309
737784008000,-4.676624666899443e-05,-0.0011703449999913573,0.0025662726256996393,-0.7960780262947083,-0.05628445744514465,-9.762358665466309
737784008000,-4.676624666899443e-05,-0.0011703449999913573,0.0025662726256996393,-0.7960780262947083,-0.05628445744514465,-9.762358665466309
737856024000,2.450720057822764e-05,-0.00028920883778482676,-0.003392640268430114,-0.7844724655151367,0.07527714967727661,-9.769742012023926
737864125000,0.0010461782803758979,0.0016899923793971539,-0.0002368752466281876,-0.7287043333053589,0.035033077001571655,-9.818326950073242
737870814000,0.0004631481133401394,-0.0008351893629878759,0.00487080542370677,-0.8018984794616699,-0.0833151638507843,-9.754399299621582
737884693000,-0.001208665082231164,-0.0005998610868118703,0.002176473615691066,-0.7732837200164795,-0.07902228832244873,-9.778329849243164
737891601000,5.548656918108463e-05,0.0006480843876488507,-0.0036953426897525787,-0.786569356918335,0.08758217096328735,-9.774984359741211
737898696000,-0.0012380225816741586,-0.00045911758206784725,0.0021543526090681553,-0.7697756290435791,-0.08747559785842896,-9.778531074523926
737905534000,0.0009950343519449234,0.0019435081630945206,-0.0005940789123997092,-0.7581861019134521,0.03374356031417847,-9.797856330871582
737919443000,-0.00035268673673272133,0.0009439312852919102,-0.0009775239741429687,-0.7826287150382996,0.0012779533863067627,-9.787189483642578
737926307000,-3.0114315450191498e-06,-0.0015754027990624309,0.002615300239995122,-0.7948263883590698,-0.06363517045974731,-9.763466835021973
