sim_time_ns,gyro_x,gyro_y,gyro_z,accel_x,accel_y,accel_z
69290554000,-0.0009539916645735502,-0.0009242790401913226,0.003739736508578062,2.3628997802734375,-0.09769618511199951,-9.53404712677002
69297464000,0.002326556481420994,-0.0004453465808182955,-0.0013067878317087889,2.3332555294036865,0.05964076519012451,-9.516843795776367
69304403000,-0.0007850097608752549,-6.31940783932805e-05,-0.002788480604067445,2.3416907787323,0.03732407093048096,-9.534699440002441
69311352000,-0.0012204753002151847,-0.0008198576397262514,0.0036092486698180437,2.360218048095703,-0.10774219036102295,-9.524650573730469
69325249000,-0.0010917868930846453,-0.001914179534651339,0.000852069235406816,2.324533462524414,-0.027213096618652344,-9.508156776428223
69343524000,-0.0007554319454357028,0.00031627481803297997,0.003898903727531433,2.362846612930298,-0.1495380401611328,-9.53097915649414
69359189000,0.00048277375753968954,-0.001152606913819909,0.0034636203199625015,2.3077969551086426,-0.07470166683197021,-9.49500846862793
69380961000,0.002269480610266328,-0.00026605604216456413,-0.001032355590723455,2.3334710597991943,0.049500107765197754,-9.5159273147583
69380961000,0.002269480610266328,-0.00026605604216456413,-0.001032355590723455,2.3334710597991943,0.049500107765197754,-9.5159273147583
69380961000,0.002269480610266328,-0.00026605604216456413,-0.001032355590723455,2.3334710597991943,0.049500107765197754,-9.5159273147583
69403544000,0.000864775269292295,0.0009683966636657715,-0.0009510206873528659,2.3705859184265137,0.022028326988220215,-9.529106140136719
69417985000,0.0022382489405572414,0.00020913267508149147,-0.00017897514044307172,2.331193685531616,0.05724442005157471,-9.521799087524414
69430856000,-0.00047705858014523983,0.00040310254553332925,-0.0024645233061164618,2.3365163803100586,0.05291783809661865,-9.534505844116211
69437593000,-0.0014505651779472828,-0.0005556507385335863,0.0031034445855766535,2.3620595932006836,-0.1249854564666748,-9.527995109558105
69444564000,0.0020957801025360823,-4.208879545331001e-05,-0.0015665506944060326,2.335477828979492,0.05187082290649414,-9.51565170288086
69451502000,-0.0007250874186865985,-0.0006060766172595322,0.003896889742463827,2.359229326248169,-0.07919859886169434,-9.533780097961426
69465403000,-0.0009002367733046412,0.00023994350340217352,-0.0027452779468148947,2.3426806926727295,0.027447819709777832,-9.533428192138672
69472341000,-0.0011445237323641777,-0.0005474014906212687,0.0036188848316669464,2.359384059906006,-0.10803580284118652,-9.527091979980469
69479301000,0.002215505810454488,-3.0297553166747093e-05,-0.0015103812329471111,2.332859516143799,0.06059825420379639,-9.515100479125977
69486186000,-0.00072074169293046,0.0002003476256504655,-0.0026386878453195095,2.3430428504943848,0.030129671096801758,-9.534208297729492
69493307000,-0.0011137238470837474,-0.0005669610109180212,0.0036444314755499363,2.359463691711426,-0.10591447353363037,-9.527220726013184
69507041000,-0.0011405766708776355,-0.0018900306895375252,0.0008504760917276144,2.3241214752197266,-0.02653217315673828,-9.508373260498047
69514044000,0.00022257131058722734,0.0013164409901946783,-0.0020233497489243746,2.3738718032836914,0.036629557609558105,-9.537327766418457
69520911000,-0.000806650728918612,0.00030353982583619654,0.003769499249756336,2.3551855087280273,-0.09437119960784912,-9.529460906982422
69527973000,0.0019935020245611668,0.00045445782598108053,-0.0016162662068381906,2.3284738063812256,0.06846749782562256,-9.520990371704102
69541812000,-0.0011191272642463446,-0.00030879187397658825,0.003567095845937729,2.357311725616455,-0.10193753242492676,-9.529426574707031
69548700000,0.002103338949382305,-5.058199167251587e-05,-0.0015294337645173073,2.3319473266601562,0.06074345111846924,-9.519593238830566
69555669000,-0.0007228070171549916,0.0001336837885901332,-0.002659376012161374,2.3425674438476562,0.029546260833740234,-9.534870147705078
69562708000,-0.001063240459188819,-0.0006680345395579934,0.0036438382230699062,2.359200954437256,-0.10653114318847656,-9.527976036071777
69569537000,0.0022266139276325703,-0.00019018840976059437,-0.0014977660030126572,2.3323071002960205,0.06119894981384277,-9.514917373657227
69583439000,-0.0011234658304601908,-0.0006815902306698263,0.0036586716305464506,2.3590376377105713,-0.10590720176696777,-9.525856971740723
69590428000,0.0021892546210438013,-2.8313836082816124e-05,-0.0014871881576254964,2.3336730003356934,0.06116306781768799,-9.514311790466309
69597338000,-0.001108314492739737,-0.0018732610624283552,0.0008571739308536053,2.3241662979125977,-0.026793837547302246,-9.508278846740723
69604247000,0.00023250887170433998,0.0013272155774757266,-0.0020198679994791746,2.3737335205078125,0.036824703216552734,-9.536867141723633
69611248000,-0.0008172572124749422,0.00031103717628866434,0.0037681516259908676,2.3550429344177246,-0.09419083595275879,-9.529269218444824
69625197000,-0.0008967216708697379,0.0005549367051571608,-0.002715873997658491,2.3422677516937256,0.027703046798706055,-9.535118103027344
69632049000,-0.0010783200850710273,-0.00031120548374019563,0.0037097588647156954,2.35901141166687,-0.10944151878356934,-9.529322624206543
69638991000,0.0022493479773402214,-6.052618846297264e-05,-0.0014801746001467109,2.3309783935546875,0.061807870864868164,-9.519172668457031
69645986000,-0.0003928286023437977,0.0013547423295676708,0.00039027162711136043,2.3768997192382812,-0.019306659698486328,-9.559303283691406
69652955000,0.00045305321691557765,-0.0008472618646919727,-0.0022588223218917847,2.304600954055786,0.03245079517364502,-9.502775192260742
69666788000,4.412606358528137e-05,-0.0013362554600462317,0.0013431598199531436,2.354185104370117,-0.018046975135803223,-9.506543159484863
69673769000,0.0002068291651085019,0.0018258782802149653,-0.0020594350062310696,2.370354175567627,0.05243992805480957,-9.539740562438965
69680705000,-0.0009568599052727222,0.0007555297343060374,0.0037231657188385725,2.355024814605713,-0.09367263317108154,-9.529940605163574
69687591000,0.0020584450103342533,0.0008291249396279454,-0.001514266594313085,2.3290786743164062,0.0644538402557373,-9.522828102111816
69701482000,0.0003973296843469143,-0.0004012248828075826,-0.0023533517960458994,2.302786111831665,0.033307433128356934,-9.504888534545898
69708518000,-0.0005555732641369104,0.0011614650720730424,0.00022003945196047425,2.3812623023986816,-0.04034876823425293,-9.560558319091797
69715386000,0.000872083124704659,-0.0012135165743529797,-0.0021399047691375017,2.305501937866211,0.02438795566558838,-9.503454208374023
69722326000,-0.0007366498466581106,-0.0015245059039443731,0.0038372299168258905,2.3629050254821777,-0.09409034252166748,-9.532585144042969
69729367000,0.0021378265228122473,-0.0006519114831462502,-0.001453731907531619,2.3343138694763184,0.06618428230285645,-9.512484550476074
69743300000,-0.00017756735906004906,-0.0009642085060477257,0.0012581624323502183,2.355767250061035,-0.016930460929870605,-9.505281448364258
69750211000,0.0001484226668253541,0.002128063701093197,-0.002131690038368106,2.36980938911438,0.051287055015563965,-9.539100646972656
69757175000,-0.0005800931248813868,0.0029884998220950365,0.00019074947340413928,2.373248338699341,-0.03764533996582031,-9.555055618286133
69764148000,0.0007895532762631774,0.0003304914280306548,-0.0021602450869977474,2.3032186031341553,0.024516940116882324,-9.504497528076172
69770953000,-0.0007804938359186053,-0.00023847214470151812,0.0038203333970159292,2.361288070678711,-0.09434020519256592,-9.537696838378906
69784844000,-0.000813364633359015,-5.4163974709808826e-05,-0.0027072583325207233,2.342822790145874,0.027812838554382324,-9.53650951385498
69791877000,-0.0010609389282763004,-0.0009511433891020715,0.003718920750543475,2.3588428497314453,-0.10910904407501221,-9.528350830078125
69798739000,0.002256362233310938,-0.00038631795905530453,-0.001473172684200108,2.3329036235809326,0.06190085411071777,-9.514180183410645
69805655000,-0.001095843967050314,-0.0022143337409943342,0.0008664296474307775,2.3243331909179688,-0.026417970657348633,-9.508727073669434
69812678000,0.00022293842630460858,0.0011231753742322326,-0.002007612958550453,2.374351739883423,0.03688085079193115,-9.534286499023438
69826553000,0.0021061585284769535,0.0004914511227980256,-0.0014875009655952454,2.331106185913086,0.06530797481536865,-9.519343376159668
69833458000,-0.00045290275011211634,0.0017879769438877702,0.00036975633702240884,2.3758697509765625,-0.019567489624023438,-9.55953311920166
69840437000,0.00040501076728105545,-0.000510699930600822,-0.0023462274111807346,2.303771495819092,0.03353714942932129,-9.503994941711426
69847372000,-0.0009776185033842921,-0.0009449883364140987,0.0037398634012788534,2.36275315284729,-0.0972524881362915,-9.534071922302246
69861314000,-0.0007013161666691303,-0.0001101632951758802,-0.002654719166457653,2.3432037830352783,0.030080080032348633,-9.534514427185059
69868199000,-0.0014759728219360113,-0.002158242277801037,0.0006417802651412785,2.325183868408203,-0.05626475811004639,-9.499420166015625
69875251000,-6.079691229388118e-05,-0.0009942690376192331,0.0013026893138885498,2.3552474975585938,-0.0239180326461792,-9.505878448486328
69882113000,0.00024235143791884184,0.0020163573790341616,-0.0019874125719070435,2.3697736263275146,0.04967188835144043,-9.54034423828125
69889000000,-0.0009433252853341401,0.0009098027949221432,0.003752842778339982,2.354865550994873,-0.09280622005462646,-9.530794143676758
69902916000,-0.0004287608899176121,0.0020958902314305305,0.0003820895217359066,2.375028133392334,-0.018674015998840332,-9.562088966369629
69909869000,0.0005887775914743543,-0.0003531875554472208,-0.0021587880328297615,2.3039660453796387,0.02958095073699951,-9.506752967834473
69916766000,-0.0004984757979400456,0.0010493914596736431,0.00028154189931228757,2.378955841064453,-0.03724384307861328,-9.560233116149902
69923782000,0.0007174243219196796,-0.0013086855178698897,-0.002237193286418915,2.304438829421997,0.028321266174316406,-9.503965377807617
69930701000,-0.000821082154288888,-0.0015774618368595839,0.0038047288544476032,2.3640756607055664,-0.0956500768661499,-9.53287124633789
69944685000,-0.0011146331671625376,-0.002461077878251672,0.001004542806185782,2.3266382217407227,-0.03333461284637451,-9.505545616149902
69951495000,-0.00012892944505438209,-0.000992943998426199,0.001311236061155796,2.3550679683685303,-0.01531374454498291,-9.504685401916504
69958580000,0.00015507813077419996,0.0021272513549774885,-0.0021150591783225536,2.3698930740356445,0.052163004875183105,-9.5392427444458
69965391000,-0.0006328681483864784,0.00294319330714643,0.00019921822240576148,2.372987747192383,-0.03718066215515137,-9.554916381835938
69979346000,-0.0007375829736702144,-0.0002604137407615781,0.003964200150221586,2.363248586654663,-0.1014862060546875,-9.537989616394043
69986222000,0.002338176826015115,-0.00021539675071835518,-0.0014353888109326363,2.3282523155212402,0.06697571277618408,-9.523804664611816
69993265000,-0.00040174415335059166,0.001121314475312829,0.0003855331160593778,2.376483917236328,-0.01795220375061035,-9.561238288879395
70000203000,0.00037721905391663313,-0.0011711359256878495,-0.0023384266532957554,2.30381441116333,0.03408157825469971,-9.503263473510742
70007146000,-0.0013406460639089346,-0.002739941468462348,0.0007362655596807599,2.329392433166504,-0.047419190406799316,-9.505905151367188
70020934000,0.0002948800101876259,0.0017748147947713733,-0.0020207667257636786,2.3701841831207275,0.05406451225280762,-9.538383483886719
70027972000,-0.0009922117460519075,0.0006356918020173907,0.00373998680151999,2.354482650756836,-0.09266841411590576,-9.529770851135254
70034870000,0.0020657123532146215,0.0007751041557639837,-0.00151157402433455,2.329580068588257,0.0644679069519043,-9.522900581359863
70041842000,-0.0004958366043865681,0.0019440574105829,0.0003670402511488646,2.375174045562744,-0.01990675926208496,-9.560791015625
70048779000,0.0004023808578494936,-0.00041681923903524876,-0.0023490875028073788,2.3034253120422363,0.03332090377807617,-9.505672454833984
70062745000,0.0021414747461676598,-0.0005152367521077394,-0.0015530840028077364,2.329953670501709,0.0691756010055542,-9.517963409423828
70069562000,-0.0007457970641553402,-0.00022310612257570028,-0.0026821885257959366,2.344327926635742,0.029755592346191406,-9.535953521728516
70076543000,-0.0010784282349050045,-0.0008908150484785438,0.003639894537627697,2.360055923461914,-0.10689783096313477,-9.524787902832031
70083501000,0.00220677861943841,-0.00023739482276141644,-0.0014914229977875948,2.33355450630188,0.06104385852813721,-9.512224197387695
70097398000,0.00021590548567473888,0.0012629276607185602,-0.0020142775028944016,2.3747472763061523,0.036777615547180176,-9.534855842590332
70104259000,-0.0008062067208811641,0.00026151747442781925,0.0037638014182448387,2.355348587036133,-0.09415984153747559,-9.529507637023926
70111341000,0.0019512190483510494,0.00052645243704319,-0.0016815505223348737,2.329202175140381,0.0697547197341919,-9.520414352416992
70118242000,-0.0008827090496197343,0.0005513031501322985,-0.0027129112277179956,2.3425052165985107,0.0277559757232666,-9.535611152648926
70125279000,-0.0010884879156947136,-0.0003103130147792399,0.0036258515901863575,2.359015464782715,-0.10782694816589355,-9.529865264892578
70139052000,-0.0006904792971909046,0.00010044057853519917,-0.002638815203681588,2.342735767364502,0.030080199241638184,-9.53559398651123
70146099000,-0.001098325476050377,-0.0008198377909138799,0.0037434659898281097,2.3584983348846436,-0.10753226280212402,-9.527212142944336
70152976000,0.002281117020174861,-0.00021521723829209805,-0.0014772536233067513,2.333089828491211,0.06206107139587402,-9.51482105255127
70160057000,-0.0010712685761973262,-0.002072596922516823,0.0009417265537194908,2.3244261741638184,-0.02776801586151123,-9.508783340454102
70173893000,-0.0008246985962614417,0.00011549881310202181,0.003857680130749941,2.354640007019043,-0.09530305862426758,-9.528542518615723
70180974000,0.0021739935036748648,0.0004357843426987529,-0.001473259530030191,2.330636501312256,0.06618368625640869,-9.520514488220215
70187668000,-0.000768688740208745,0.0005274455761536956,-0.0026511233299970627,2.3417553901672363,0.030974864959716797,-9.53577995300293
70194674000,-0.001165111199952662,-0.0004098849603906274,0.0036450126208364964,2.35815167427063,-0.10612237453460693,-9.528849601745605
70208680000,-0.0007301995065063238,0.00010095140896737576,-0.0026353953871876,2.3424458503723145,0.03014969825744629,-9.535082817077637
70215496000,-0.0010986683191731572,-0.0006959924940019846,0.003653851803392172,2.359221935272217,-0.10614871978759766,-9.528156280517578
70222400000,0.0022247396409511566,-0.00018387683667242527,-0.0014936837833374739,2.3324949741363525,0.06111478805541992,-9.515085220336914
70229370000,-0.0006936982972547412,8.993479423224926e-05,-0.002626113360747695,2.3433542251586914,0.030100226402282715,-9.534662246704102
70236333000,-0.00102237646933645,-0.0006124480860307813,0.003660417627543211,2.359884738922119,-0.10632884502410889,-9.527093887329102
70250194000,-0.0011024856939911842,-0.0019542379304766655,0.0008677819278091192,2.324341297149658,-0.026764750480651855,-9.508553504943848
70257514000,0.0002230132231488824,0.0012385405134409666,-0.0020057186484336853,2.3735339641571045,0.03682112693786621,-9.53644847869873
70264090000,-0.0008025963325053453,0.00023847949341870844,0.0037836451083421707,2.355219602584839,-0.09434247016906738,-9.529316902160645
70270994000,0.002117421245202422,0.00043954618740826845,-0.0014927285956218839,2.3299317359924316,0.06565630435943604,-9.521055221557617
70284979000,0.00047358236042782664,-0.0005653565749526024,-0.002190386177971959,2.3058981895446777,0.0276564359664917,-9.5042142868042
70291892000,-0.00084936514031142,-0.0009495514677837491,0.0037874672561883926,2.3621959686279297,-0.09563493728637695,-9.534053802490234
70298840000,0.001961150672286749,-0.00037946249358356,-0.001663599512539804,2.3314313888549805,0.06957077980041504,-9.517424583435059
70305817000,-0.0008452265174128115,-0.00020036916248500347,-0.002702668309211731,2.343419075012207,0.02768993377685547,-9.53331184387207
70313001000,-0.0014976500533521175,-0.0021354705095291138,0.0006466011400334537,2.3266444206237793,-0.056467533111572266,-9.499611854553223
70326836000,0.0004624634748324752,0.002046985551714897,-0.0019781882874667645,2.367058277130127,0.056157827377319336,-9.540337562561035
70333694000,-0.0009603790822438896,0.000927022541873157,0.0037566262762993574,2.3546736240386963,-0.09149682521820068,-9.531129837036133
70340666000,0.002060903236269951,0.0009747327421791852,-0.001514415955170989,2.328782081604004,0.06500780582427979,-9.524073600769043
70347702000,-0.00047028902918100357,0.0021032795775681734,0.0003574079310055822,2.3747787475585938,-0.019955992698669434,-9.56186580657959
70361516000,-0.0006036933627910912,0.0010515977628529072,0.0002216394350398332,2.379511833190918,-0.039995789527893066,-9.559938430786133
70368454000,0.0008483266574330628,-0.0013055992312729359,-0.002136775990948081,2.3057327270507812,0.024236559867858887,-9.504242897033691
70375400000,-0.0007920728530734777,-0.001666937256231904,0.0038398103788495064,2.3624720573425293,-0.09392094612121582,-9.532186508178711
70382591000,0.002149498788639903,-0.0007018486503511667,-0.0014477400109171867,2.3349812030792236,0.06576418876647949,-9.512245178222656
70396399000,-0.00019605486886575818,-0.0009985131910070777,0.001257868018001318,2.3554940223693848,-0.016694307327270508,-9.504915237426758
70403383000,0.00014931883197277784,0.002111880574375391,-0.002123202197253704,2.3695971965789795,0.050107598304748535,-9.53868579864502
70410328000,-0.0005852959584444761,0.0029105362482368946,0.000352799310348928,2.373347759246826,-0.04015183448791504,-9.555072784423828
70417265000,0.0006856531254015863,0.0003413658123463392,-0.002312888391315937,2.3023133277893066,0.03047943115234375,-9.504801750183105
70431052000,0.0020002946257591248,-0.0001799719175323844,-0.0015797403175383806,2.328535795211792,0.06760632991790771,-9.523823738098145
70437981000,-0.0005724197835661471,-9.632838191464543e-05,-0.0024916776455938816,2.3440628051757812,0.024226903915405273,-9.536921501159668
70444914000,-0.0009969603270292282,-0.0010230988264083862,0.0036984386388212442,2.357389450073242,-0.10409510135650635,-9.527961730957031
70451893000,0.002215469256043434,-0.00041140662506222725,-0.0014802443329244852,2.333080768585205,0.062291741371154785,-9.51443099975586
70465753000,7.050164276733994e-05,0.0011253963457420468,-0.0021013410296291113,2.3736062049865723,0.039374589920043945,-9.533913612365723
70472751000,-0.0009137305314652622,0.00012088942457921803,0.0037465537898242474,2.35593843460083,-0.09564411640167236,-9.528919219970703
70479732000,0.0021076693665236235,0.0004936290206387639,-0.0014954458456486464,2.3311872482299805,0.06450355052947998,-9.518959045410156
70486605000,-0.0007505416870117188,0.0005828840658068657,-0.002653175499290228,2.341712474822998,0.030167818069458008,-9.53567123413086
70500461000,0.002238344168290496,-9.413040243089199e-05,-0.0014953005593270063,2.3305563926696777,0.06100916862487793,-9.518458366394043
70507430000,-0.0007459897897206247,7.031462155282497e-05,-0.002629023976624012,2.3425536155700684,0.03048074245452881,-9.535263061523438
70514364000,-0.0009204461239278316,-0.0007481375942006707,0.003855236805975437,2.360367774963379,-0.11062896251678467,-9.528352737426758
70521259000,0.0021766365971416235,-0.00018761935643851757,-0.0016241397242993116,2.330583095550537,0.06844007968902588,-9.514945983886719
70528255000,-0.001018169685266912,-0.002064612228423357,0.0010217981180176139,2.3262839317321777,-0.03268933296203613,-9.509329795837402
70542106000,-0.0009244625107385218,0.00016280770068988204,0.0037455172277987003,2.3555328845977783,-0.0962364673614502,-9.529001235961914
70549056000,0.002093652030453086,0.00045165419578552246,-0.0014915488427504897,2.330638885498047,0.06443142890930176,-9.520140647888184
70556032000,-0.00043345813173800707,0.0017634197138249874,0.00036651265691034496,2.3759844303131104,-0.019748210906982422,-9.55968189239502
70563117000,0.00040177826303988695,-0.0005546825705096126,-0.0023413223680108786,2.3035714626312256,0.03352546691894531,-9.503815650939941
70569887000,-0.0009584691724739969,-0.0009565202053636312,0.003742914879694581,2.3629953861236572,-0.0973360538482666,-9.53430461883545
70583831000,-0.0007446115487255156,-0.00019199500093236566,-0.0026538828387856483,2.342594623565674,0.0303497314453125,-9.533661842346191
70590808000,-0.00110126833897084,-0.0008515177760273218,0.003737532300874591,2.3601877689361572,-0.10795056819915771,-9.524186134338379
70597737000,0.002271093660965562,-0.00011156732216477394,-0.0014788240659981966,2.334007501602173,0.06202852725982666,-9.512761116027832
70604611000,-0.0011339186457917094,-0.0019436245784163475,0.000860639673192054,2.324453353881836,-0.026108741760253906,-9.50838851928711
70611605000,0.00022688123863190413,0.001340337097644806,-0.0020147853065282106,2.3743715286254883,0.036705970764160156,-9.536182403564453
70625450000,0.002126905834302306,0.00048181647434830666,-0.0014981366693973541,2.329780340194702,0.06543636322021484,-9.521245002746582
70632379000,-0.0007969812140800059,0.0005269757239148021,-0.002655426971614361,2.341533660888672,0.030530929565429688,-9.5354642868042
70639354000,-0.0011075867805629969,-0.0003261099336668849,0.0036400591488927603,2.358982563018799,-0.10655021667480469,-9.529909133911133
70646302000,0.002172015141695738,-8.367234840989113e-05,-0.0014904290437698364,2.3311705589294434,0.06107902526855469,-9.519438743591309
70660210000,-0.0011152559891343117,-0.0007697911350987852,0.0036536219995468855,2.3585753440856934,-0.10594451427459717,-9.527420043945312
70667105000,0.0022190159652382135,-0.00020281248725950718,-0.0014882271643728018,2.332977294921875,0.06097090244293213,-9.51490306854248
70674137000,-0.0006943030748516321,7.636984810233116e-05,-0.0026285548228770494,2.3433845043182373,0.030207037925720215,-9.534504890441895
70681009000,-0.0011035720817744732,-0.0006771193002350628,0.0036655645817518234,2.3594565391540527,-0.10602319240570068,-9.525958061218262
70687990000,0.002157528419047594,-3.4405384212732315e-05,-0.0014836536720395088,2.333681583404541,0.061505675315856934,-9.51451587677002
70701825000,0.0002310286508873105,0.001295926165767014,-0.0020119810942560434,2.3736791610717773,0.03692638874053955,-9.536934852600098
70708810000,-0.0008072785567492247,0.0002781812218017876,0.003776696976274252,2.3550939559936523,-0.09426558017730713,-9.529358863830566
70715708000,0.0019345581531524658,0.0005018528318032622,-0.0016773459501564503,2.328946590423584,0.06998836994171143,-9.52145004272461
70722654000,-0.0008450563764199615,0.0004965135594829917,-0.0026199249550700188,2.3423094749450684,0.02592480182647705,-9.534918785095215
70736538000,0.002198657486587763,-0.00012708036229014397,-0.0016259822295978665,2.328418254852295,0.06847631931304932,-9.51884651184082
70743568000,-0.0006340461550280452,1.2398522812873125e-05,-0.0024797110818326473,2.344567060470581,0.024634718894958496,-9.53528881072998
70750461000,-0.0010189387248829007,-0.000776449334807694,0.0037107712123543024,2.358299970626831,-0.1043015718460083,-9.527435302734375
70757415000,0.002245815936475992,-0.00019633816555142403,-0.0014767745742574334,2.332821846008301,0.06214642524719238,-9.514957427978516
70771287000,7.045932579785585e-05,0.0012378391111269593,-0.00211793533526361,2.372821807861328,0.03962671756744385,-9.535799980163574
70778283000,-0.0008737120078876615,0.0002603042230475694,0.003744326764717698,2.356201171875,-0.09608590602874756,-9.52941608428955
70785155000,0.0020973312202841043,0.0004785950295627117,-0.0014935468789190054,2.3301146030426025,0.06470000743865967,-9.520403861999512
70792149000,-0.0004592392360791564,0.0017730542458593845,0.0003719701780937612,2.3758349418640137,-0.019711017608642578,-9.559317588806152
70799076000,0.0003916253335773945,-0.0005099637783132493,-0.002345877466723323,2.303835391998291,0.033614277839660645,-9.503946304321289
70812973000,0.0021923843305557966,-0.0003756012301892042,-0.0014737386954948306,2.332674503326416,0.06477046012878418,-9.517088890075684
70819879000,-0.000726982718333602,-0.00011465739225968719,-0.00264953076839447,2.343064308166504,0.030828475952148438,-9.534323692321777
70826857000,-0.0014110789634287357,-0.002082651248201728,0.0006286202697083354,2.32578444480896,-0.056444406509399414,-9.50033187866211
70833763000,-3.9771024603396654e-05,-0.001019096584059298,0.0012988097732886672,2.354560375213623,-0.02382528781890869,-9.506143569946289
70847677000,-0.00022437958978116512,-0.002156699076294899,-0.0015851694624871016,2.2523183822631836,0.03657639026641846,-9.461880683898926
70854653000,-0.0004965008702129126,0.0036033070646226406,0.0003499377053231001,2.4368515014648438,-0.029682397842407227,-9.588908195495605
70861606000,7.16450740583241e-05,-0.0009674560860730708,0.0011589498026296496,2.2842233180999756,-0.02482128143310547,-9.484169960021973
70868493000,-4.807417280972004e-05,-0.0007975866901688278,0.0013473827857524157,2.347294330596924,-0.007291436195373535,-9.526937484741211
70875608000,-5.435678758658469e-05,-0.0006128247478045523,0.0013969028368592262,2.3453402519226074,-0.005562543869018555,-9.523374557495117
70889403000,-0.001247894368134439,-0.0006908221985213459,0.0007067985716275871,2.317673921585083,-0.04168546199798584,-9.507145881652832
70896602000,7.125188130885363e-05,0.0016892387066036463,-0.0022160843946039677,2.366969585418701,0.03771388530731201,-9.546625137329102
70903327000,-0.0007484594825655222,0.00039816286880522966,0.003915271256119013,2.3541626930236816,-0.10143077373504639,-9.532358169555664
70910450000,0.0023134048096835613,0.00037255825009196997,-0.001460073166526854,2.326282262802124,0.06663882732391357,-9.523975372314453
70924565000,-0.0011416799388825893,-0.0005765192327089608,0.003643422620370984,2.356654644012451,-0.10525953769683838,-9.530548095703125
70931230000,0.002188956830650568,-0.00024565751664340496,-0.0014024355914443731,2.33064866065979,0.059410929679870605,-9.51899242401123
70938191000,-0.0007078484632074833,-7.772358367219567e-05,-0.002621863968670368,2.3406295776367188,0.03142344951629639,-9.535172462463379
70945188000,-0.0011178588028997183,-0.0007909185951575637,0.0036578141152858734,2.358241558074951,-0.105712890625,-9.526535987854004
70952048000,0.002206052653491497,-0.00012273993343114853,-0.0014911552425473928,2.332085371017456,0.06115436553955078,-9.513866424560547
70965874000,-0.001069979160092771,-0.0005640279850922525,0.003740592859685421,2.3585872650146484,-0.10761404037475586,-9.525876998901367
70972808000,0.002262066351249814,4.33486420661211e-05,-0.0014631724916398525,2.331780433654785,0.06204187870025635,-9.514628410339355
70979879000,-0.0010905259987339377,-0.0018463375745341182,0.0009482828318141401,2.3227272033691406,-0.027638673782348633,-9.50911808013916
70986761000,0.000243758549913764,0.0013623385457322001,-0.0019947190303355455,2.3721442222595215,0.03795456886291504,-9.537630081176758
71000586000,0.0021452419459819794,0.0005207043141126633,-0.0014744482468813658,2.3288679122924805,0.06657707691192627,-9.52223014831543
71007589000,-0.0007976809283718467,0.0005492750788107514,-0.0026528502348810434,2.339698076248169,0.03097367286682129,-9.53592300415039
71014547000,-0.0011176231782883406,-0.00033410813193768263,0.0036518590059131384,2.3572187423706055,-0.10666179656982422,-9.530083656311035
71021430000,0.0021983939222991467,-6.506545469164848e-05,-0.0014974388759583235,2.3297126293182373,0.061188340187072754,-9.519529342651367
71028404000,-0.0007217423990368843,0.00010940269567072392,-0.002638649893924594,2.3410425186157227,0.030258536338806152,-9.535616874694824
71042471000,0.0022164033725857735,-0.00018302886746823788,-0.0014872595202177763,2.3309884071350098,0.061186909675598145,-9.515105247497559
71049208000,-0.0006906291237100959,9.335740469396114e-05,-0.0026261419989168644,2.341811180114746,0.03014826774597168,-9.534839630126953
71056139000,-0.0010488355765119195,-0.0006393675575964153,0.003738751634955406,2.358276844024658,-0.10750472545623779,-9.52649211883545
71063193000,0.0022273557260632515,-3.701820969581604e-05,-0.001460445811972022,2.33174467086792,0.062275052070617676,-9.514759063720703
71070019000,-0.0011096501257270575,-0.001890450599603355,0.0008692596456967294,2.322533130645752,-0.026338577270507812,-9.50877571105957
71083949000,-0.00081095308996737,0.00030435362714342773,0.0037766608875244856,2.353562831878662,-0.09426867961883545,-9.52977466583252
71091252000,0.002131496090441942,0.0004648606991395354,-0.0014825657708570361,2.3284425735473633,0.06369948387145996,-9.521587371826172
71098086000,-0.0004450532142072916,0.0017170626670122147,0.0005755142774432898,2.3747990131378174,-0.02279067039489746,-9.560066223144531
71104955000,0.0005098222754895687,-0.0005630669184029102,-0.0023006966803222895,2.301851272583008,0.03568685054779053,-9.504100799560547
71118786000,0.0023184064775705338,-0.0004328328650444746,-0.0013007394736632705,2.332125186920166,0.05951738357543945,-9.517131805419922
71125794000,-0.0008103365544229746,-7.833132985979319e-05,-0.0027809753082692623,2.340053081512451,0.037410736083984375,-9.534868240356445
71132701000,-0.001552098197862506,-0.0020930785685777664,0.0005977063556201756,2.3248934745788574,-0.05794024467468262,-9.500312805175781
71139606000,0.00011806923430413008,-0.0010266108438372612,0.0014832784654572606,2.3543763160705566,-0.029252290725708008,-9.505821228027344
71153527000,-0.0002965005114674568,-0.00209148321300745,-0.0017163062002509832,2.249481201171875,0.04515397548675537,-9.463022232055664
71160570000,-0.00043440540321171284,0.003593100467696786,0.000489044061396271,2.436795234680176,-0.03521382808685303,-9.589629173278809
71167386000,0.0011128317564725876,0.0019616580102592707,0.0007204840076155961,2.33144474029541,-0.017109990119934082,-9.529805183410645
71174513000,0.00112598342821002,0.0010264067677780986,0.00078818469773978,2.3382320404052734,-0.005937933921813965,-9.537040710449219
71181323000,0.0007068765116855502,-0.0009632192086428404,-0.0020369288977235556,2.305901527404785,0.04230833053588867,-9.514084815979004
71195255000,0.0007774581899866462,-0.0017145790625363588,-0.002136704744771123,2.304635763168335,0.025835871696472168,-9.504451751708984
71202100000,-0.0011054843198508024,-0.0031172321178019047,0.0008111952338367701,2.328052043914795,-0.04418766498565674,-9.50378704071045
71209164000,0.00011742347851395607,-0.0016737652476876974,0.0015154443681240082,2.3564114570617676,-0.023618578910827637,-9.502540588378906
71215985000,0.0004706007894128561,0.001676634419709444,-0.0018324708798900247,2.3700599670410156,0.05043625831604004,-9.535560607910156
71229875000,0.0019000234315171838,0.0008996582473628223,-0.0015403127763420343,2.329907178878784,0.06335949897766113,-9.522392272949219
71236812000,-0.0004602366825565696,0.002075308933854103,0.00034724391298368573,2.373779773712158,-0.021148085594177246,-9.561161041259766
71243907000,0.0003978483728133142,-0.00038340239552780986,-0.0023470167070627213,2.3013458251953125,0.033180952072143555,-9.50553035736084
71250676000,-0.0009701150702312589,-0.0008697781013324857,0.0037455002311617136,2.361093759536743,-0.09742605686187744,-9.536301612854004
71264634000,-0.0006970325484871864,-0.00022752967197448015,-0.0026447554118931293,2.341576099395752,0.030135035514831543,-9.535760879516602
71271544000,-0.0014489442110061646,-0.002254128223285079,0.0006425452884286642,2.3238718509674072,-0.056232452392578125,-9.499995231628418
71278552000,-2.3128639440983534e-05,-0.0011196332052350044,0.0013913102447986603,2.3538312911987305,-0.02546858787536621,-9.505638122558594
71285416000,0.0009628324769437313,0.0030417130328714848,0.001145729562267661,2.4032788276672363,-0.002738356590270996,-9.563304901123047
71292493000,-0.0002936751116067171,-0.0021812221966683865,-0.001724561327137053,2.2488937377929688,0.04424774646759033,-9.46280288696289
71306269000,0.00020249729277566075,-0.0010556348133832216,0.001342382631264627,2.2835659980773926,-0.030118346214294434,-9.484588623046875
71313231000,0.0002689811517484486,-0.000912051647901535,0.001586920116096735,2.3459513187408447,-0.009298920631408691,-9.526721954345703
71320133000,4.218309186398983e-07,-0.0006512061227113008,0.0013779625296592712,2.3431172370910645,0.00037360191345214844,-9.524564743041992
71327170000,9.090022649616003e-05,0.0018264881800860167,-0.002160179428756237,2.362769365310669,0.05524027347564697,-9.549416542053223
71334050000,-0.0015810072654858232,-0.0007255775271914899,0.0004707369371317327,2.315988063812256,-0.0403444766998291,-9.507351875305176
71347952000,-0.0007618805975653231,0.00046363199362531304,0.0037701698020100594,2.35164213180542,-0.09607815742492676,-9.533405303955078
71354851000,0.001980579923838377,0.00044716522097587585,-0.0016781332669779658,2.3247480392456055,0.06988835334777832,-9.5250244140625
71361888000,-0.0008763977093622088,0.0003696782514452934,-0.0027133915573358536,2.338996410369873,0.027957797050476074,-9.537992477416992
71368750000,-0.0011301806662231684,-0.00057838304201141,0.0036335629411041737,2.3555586338043213,-0.10770070552825928,-9.53113079071045
71382636000,-0.0007419638568535447,-0.00012424885062500834,-0.002633203286677599,2.3395915031433105,0.030414819717407227,-9.535804748535156
71389576000,-0.0009392158826813102,-0.0008448511362075806,0.0038563080597668886,2.3580288887023926,-0.1105881929397583,-9.52686882019043
71396557000,0.002165101934224367,-0.00014687958173453808,-0.0016262320568785071,2.3287088871002197,0.06846976280212402,-9.514288902282715
71403485000,-0.00105069181881845,-0.002044692635536194,0.001011406071484089,2.3232693672180176,-0.03242599964141846,-9.509840965270996
71410529000,9.193131700158119e-05,0.0012889427598565817,-0.0021538243163377047,2.369394063949585,0.04301798343658447,-9.535989761352539
71424316000,0.002121938392519951,0.0005049686878919601,-0.0014965473674237728,2.3275094032287598,0.06416928768157959,-9.520573616027832
71431339000,-0.0007243221625685692,0.0006225686520338058,-0.002650148468092084,2.339216709136963,0.030066847801208496,-9.537178039550781
71438192000,-0.0010802986798807979,-0.000324120104778558,0.003652611980214715,2.3553028106689453,-0.10643887519836426,-9.530302047729492
71445324000,0.002175702713429928,-8.449400775134563e-05,-0.00149501150008291,2.3280930519104004,0.06149756908416748,-9.51993179321289
71459094000,-0.0010643862187862396,-0.000727127946447581,0.003660755231976509,2.356269359588623,-0.10628402233123779,-9.528963088989258
71465965000,0.0021861058194190264,-0.00020316056907176971,-0.0014834444737061858,2.3297266960144043,0.06146979331970215,-9.515549659729004
71472915000,-0.0010839237365871668,-0.0020329481922090054,0.0008637122809886932,2.321352005004883,-0.026973843574523926,-9.509501457214355
71479932000,0.0002236283617094159,0.0011871305759996176,-0.0020078683737665415,2.3707528114318848,0.03691911697387695,-9.536584854125977
71486809000,-0.00078391726128757,0.00021159669267944992,0.003776544937863946,2.3523831367492676,-0.09434795379638672,-9.530241966247559
71500697000,-0.0005527983885258436,0.0017649901565164328,0.00031223788391798735,2.373756170272827,-0.022457122802734375,-9.560144424438477
71507656000,0.00039086531614884734,-0.0005535343079827726,-0.0023546325974166393,2.3007664680480957,0.03225541114807129,-9.504213333129883
71514618000,-0.0007979097426868975,-0.001003812300041318,0.0039411005564033985,2.3609347343444824,-0.10195612907409668,-9.534717559814453
71521548000,0.002126353094354272,-0.00041968526784330606,-0.0015473240055143833,2.3276803493499756,0.06941711902618408,-9.517077445983887
71535427000,-0.0015050217043608427,-0.00214604614302516,0.0006322604021988809,2.3223557472229004,-0.05672860145568848,-9.499682426452637
71542425000,-6.207922706380486e-05,-0.0009619920165278018,0.0012969037052243948,2.352369785308838,-0.024129271507263184,-9.506499290466309
71549307000,0.0002263832138851285,0.002089687855914235,-0.002066355664283037,2.367015838623047,0.051048994064331055,-9.541669845581055
71556251000,-0.0005697014275938272,0.002940542995929718,0.00022216097568161786,2.369988203048706,-0.03669595718383789,-9.555831909179688
71570185000,0.0008786250255070627,-0.00043761456618085504,-0.0021678933408111334,2.303032398223877,0.04569065570831299,-9.513250350952148
71577255000,-0.0011795925674960017,-0.0009702258394099772,0.0035919365473091602,2.3579022884368896,-0.0880500078201294,-9.537944793701172
71584067000,0.0019216849468648434,-0.0005498394602909684,-0.0015312890755012631,2.329662799835205,0.06197226047515869,-9.521371841430664
71591008000,-0.0007390294340439141,-0.0003863321035169065,-0.0026585340965539217,2.3395440578460693,0.028595805168151855,-9.535163879394531
71597960000,-0.0011167258489876986,-0.0010290949139744043,0.0036639452446252108,2.3571746349334717,-0.10665678977966309,-9.52465534210205
71611878000,-0.0010788439540192485,-0.0020410907454788685,0.000869278737809509,2.321793556213379,-0.026801586151123047,-9.509288787841797
71618763000,0.00022507330868393183,0.0012714099138975143,-0.0020049812737852335,2.371377944946289,0.03698146343231201,-9.535176277160645
71625786000,-0.0008157389820553362,0.00025500758783891797,0.003784170839935541,2.352207660675049,-0.09425342082977295,-9.529924392700195
71632659000,0.0019411840476095676,0.0005610589869320393,-0.001672718906775117,2.326488494873047,0.0699547529220581,-9.520998001098633
71639590000,-0.0008389608119614422,0.000621042912825942,-0.0027059470303356647,2.339784622192383,0.02750265598297119,-9.536737442016602
71653480000,0.002212225692346692,-8.815922774374485e-05,-0.001485540997236967,2.3278980255126953,0.06084549427032471,-9.51970100402832
71660498000,-0.000725819612853229,7.79744004830718e-05,-0.0026242381427437067,2.339567184448242,0.030324459075927734,-9.536038398742676
71667423000,-0.0009052387904375792,-0.000753556378185749,0.0038534393534064293,2.357316493988037,-0.11049282550811768,-9.529129981994629
71674325000,0.0021637261379510164,-0.00020515196956694126,-0.0016177978832274675,2.3276777267456055,0.06847000122070312,-9.515697479248047
71688219000,0.00010713789379224181,0.0012164724757894874,-0.0021465085446834564,2.369260311126709,0.043038249015808105,-9.536591529846191
71695180000,-0.00095870450604707,0.00015284441178664565,0.003745974972844124,2.352489948272705,-0.0959857702255249,-9.529448509216309
71702090000,0.002122253645211458,0.00046383042354136705,-0.001487135305069387,2.327765464782715,0.0640174150466919,-9.520454406738281
71709072000,-0.0004693202208727598,0.0017600179417058825,0.00037929124664515257,2.373013734817505,-0.019517064094543457,-9.560216903686523
71715982000,0.00038449664134532213,-0.00045717103057540953,-0.0023339041508734226,2.3015246391296387,0.033533334732055664,-9.505504608154297
71729910000,0.0021286369301378727,-0.0004046902759000659,-0.0014839263167232275,2.3294625282287598,0.06400847434997559,-9.517807960510254
71736811000,-0.0007111562299542129,-0.00014397240011021495,-0.0026496993377804756,2.3401169776916504,0.03023350238800049,-9.535012245178223
71743880000,-0.00114992365706712,-0.0008592680096626282,0.0036597393918782473,2.3566832542419434,-0.10610902309417725,-9.525091171264648
71750696000,0.002207393990829587,-0.00011302437633275986,-0.001490147551521659,2.3312597274780273,0.06098616123199463,-9.51347541809082
71757630000,-0.001118927146308124,-0.001949069439433515,0.0008650415693409741,2.321502685546875,-0.026791691780090332,-9.50893783569336
71771546000,-0.0008314307779073715,0.0003002671874128282,0.0037757633253932,2.352081775665283,-0.09414815902709961,-9.529912948608398
71778560000,0.00193184451200068,0.0005321892676874995,-0.0015955959679558873,2.3263673782348633,0.06845498085021973,-9.521836280822754
71785440000,-0.0006858668057247996,0.0005375813925638795,-0.002504797652363777,2.3402740955352783,0.024426937103271484,-9.536188125610352
71792427000,-0.000992543762549758,-0.00031807878986001015,0.003689320059493184,2.355079174041748,-0.10475325584411621,-9.53038501739502
71806245000,-0.0007409219397231936,7.45892757549882e-05,-0.002640102757140994,2.3395538330078125,0.030643939971923828,-9.535900115966797
71813259000,-0.0010782628087326884,-0.0007134300540201366,0.0036599119193851948,2.356411933898926,-0.10648894309997559,-9.528932571411133
71820163000,0.002203898737207055,-0.00021110475063323975,-0.0014810313005000353,2.3295834064483643,0.06123709678649902,-9.515645980834961
71827157000,-0.0006993866991251707,7.167097646743059e-05,-0.0026239934377372265,2.34036922454834,0.030205607414245605,-9.535151481628418
71840968000,0.0022062836214900017,-9.986478835344315e-05,-0.0014786501415073872,2.3297033309936523,0.06143593788146973,-9.514785766601562
71847954000,-0.0011259418679401278,-0.001955457031726837,0.0008755971794016659,2.3212082386016846,-0.026758551597595215,-9.50885009765625
71854867000,0.00022951862774789333,0.0013024868676438928,-0.002004676265642047,2.3712241649627686,0.03682053089141846,-9.537412643432617
71861847000,-0.0008184164762496948,0.0002835307677742094,0.003776887198910117,2.35205078125,-0.0940927267074585,-9.529943466186523
71868777000,0.001944348099641502,0.0005094086518511176,-0.001672878977842629,2.3258960247039795,0.06973159313201904,-9.52186107635498
71882651000,-0.0009309123270213604,-0.00034204035182483494,0.003842191305011511,2.357010841369629,-0.1121377944946289,-9.530296325683594
71889590000,0.0021550392266362906,-6.0884514823555946e-05,-0.0016280345153063536,2.326137065887451,0.068351149559021,-9.519944190979004
71896607000,-0.0006467023631557822,3.9063103031367064e-05,-0.002480580471456051,2.3411333560943604,0.024442553520202637,-9.535667419433594
71903502000,-0.0009898117277771235,-0.0006990073015913367,0.0037103656213730574,2.3558034896850586,-0.10447156429290771,-9.528875350952148
71917419000,-0.0011109206825494766,-0.0020337386522442102,0.000873971323017031,2.321321487426758,-0.026418209075927734,-9.509323120117188
71924334000,2.9650051146745682e-05,0.00126355467364192,-0.002192695625126362,2.369994640350342,0.041264891624450684,-9.537042617797852
71931292000,-0.0007581703830510378,0.0002103343140333891,0.003924109041690826,2.35398530960083,-0.10137498378753662,-9.529919624328613
71938198000,0.00225262762978673,0.0004226940218359232,-0.0014421133091673255,2.326070785522461,0.06676208972930908,-9.520771026611328
71952108000,0.0003736567450687289,-0.000560837215743959,-0.002338104648515582,2.3005483150482178,0.033979177474975586,-9.504295349121094
71959090000,-0.0009989876998588443,-0.0009561619954183698,0.0037565454840660095,2.359999656677246,-0.0974433422088623,-9.534714698791504
71966006000,0.0021423418074846268,-0.0003675157204270363,-0.001483035972341895,2.329686403274536,0.06380033493041992,-9.517512321472168
71972930000,-0.0007233225624077022,-0.0001109330914914608,-0.0026438201311975718,2.340078830718994,0.03029632568359375,-9.534852027893066
71979930000,-0.0009123599156737328,-0.0007879431359469891,0.0038479154463857412,2.358213424682617,-0.11066460609436035,-9.526007652282715
71993889000,-0.0006366563029587269,9.864568710327148e-05,-0.0024802631232887506,2.3420324325561523,0.024442076683044434,-9.534639358520508
72000749000,-0.0009878824930638075,-0.0005543227307498455,0.0037107246462255716,2.3563122749328613,-0.10448217391967773,-9.526594161987305
72007695000,0.002210551407188177,1.5501631423830986e-05,-0.0014749898109585047,2.3300275802612305,0.06249070167541504,-9.515584945678711
72014709000,-0.0010859494796022773,-0.0018170301336795092,0.0008723157807253301,2.321521282196045,-0.02682507038116455,-9.509573936462402
72021559000,3.574439324438572e-05,0.0013634997885674238,-0.0021982293110340834,2.369436502456665,0.04143226146697998,-9.538190841674805
72035491000,0.002282142173498869,0.0004160159733146429,-0.0014489659806713462,2.325806140899658,0.06656467914581299,-9.521509170532227
72042440000,-0.0007350397645495832,0.0005701034097000957,-0.002639846410602331,2.339451313018799,0.03163862228393555,-9.537355422973633
72049383000,-0.001148498267866671,-0.00039655796717852354,0.003658200381323695,2.3549976348876953,-0.10606598854064941,-9.529526710510254
72056276000,0.0021769425366073847,-7.492676377296448e-05,-0.00149104546289891,2.3286359310150146,0.06115102767944336,-9.519983291625977
72070171000,-0.0010877210879698396,-0.0007027733372524381,0.0036695683375000954,2.356243133544922,-0.1062852144241333,-9.528590202331543
72077167000,0.002219028538092971,-0.00017403042875230312,-0.001477411249652505,2.3296875953674316,0.06120181083679199,-9.515626907348633
72084058000,-0.0011257415171712637,-0.0020158677361905575,0.0008743460057303309,2.321331739425659,-0.026636123657226562,-9.509232521057129
72090991000,0.0002152048982679844,0.0012298210058361292,-0.002000791486352682,2.3708322048187256,0.036789536476135254,-9.536803245544434
72098001000,-0.0008145077154040337,0.000237720349105075,0.003787076100707054,2.3523337841033936,-0.09427773952484131,-9.529973983764648
72111880000,-0.0004344916669651866,0.001728690811432898,0.0005156649858690798,2.37454891204834,-0.026341915130615234,-9.559898376464844
72118812000,0.0005422100657597184,-0.0004594044294208288,-0.0023046345449984074,2.3007280826568604,0.03482389450073242,-9.505203247070312
72125737000,-0.0007736640982329845,-0.0009793497156351805,0.003955553285777569,2.3603315353393555,-0.1007002592086792,-9.534704208374023
72132707000,0.0022641741670668125,-0.0004479736089706421,-0.0014411319280043244,2.328261375427246,0.06716299057006836,-9.517897605895996
72139614000,-0.0007151147583499551,-0.0001625356962904334,-0.0026438042987138033,2.3401803970336914,0.03161799907684326,-9.535268783569336
72153514000,-6.14898162893951e-05,-0.0009926592465490103,0.0013005854561924934,2.3523926734924316,-0.023954153060913086,-9.506391525268555
72160517000,0.0007321613375097513,0.0031518852338194847,0.0009468533098697662,2.400519371032715,0.00024700164794921875,-9.563874244689941
72167432000,-0.0002450651954859495,-0.0020982231944799423,-0.0015719248913228512,2.249779224395752,0.03658747673034668,-9.462955474853516
72174335000,-0.0005079945549368858,0.0036370307207107544,0.0003506758948788047,2.4335262775421143,-0.029513239860534668,-9.589583396911621
72181341000,2.0444043911993504e-05,-0.0009149557445198298,0.0011682887561619282,2.2815587520599365,-0.024737000465393066,-9.485301971435547
72195218000,0.00010146418935619295,-0.0006271955789998174,0.0015079525765031576,2.3431153297424316,-0.00825655460357666,-9.524458885192871
72202118000,0.00017273961566388607,0.0018549504457041621,-0.0021132726687937975,2.36069917678833,0.05687975883483887,-9.550225257873535
72209130000,-0.0013962739612907171,-0.0007190671167336404,0.0006609723204746842,2.3152523040771484,-0.04347991943359375,-9.507608413696289
72216096000,4.736054688692093e-05,0.0017178845591843128,-0.002221868373453617,2.3644895553588867,0.03633701801300049,-9.54678726196289
72222972000,-0.0006852028891444206,0.00047332074609585106,0.003924917429685593,2.3516268730163574,-0.1021413803100586,-9.533637046813965
72236837000,-0.000789059791713953,0.0003702966496348381,-0.0026302277110517025,2.3367221355438232,0.031774163246154785,-9.538650512695312
72243815000,-0.0011524928268045187,-0.0005871134926564991,0.0036487875040620565,2.353654623031616,-0.10600757598876953,-9.531238555908203
72250736000,0.0022027071099728346,-0.00024402537383139133,-0.0015046417247503996,2.3271656036376953,0.06106114387512207,-9.519612312316895
72257671000,-0.0007156211649999022,-3.7597608752548695e-05,-0.0026367269456386566,2.3385190963745117,0.03012549877166748,-9.53667163848877
72271586000,0.0022015103604644537,-0.00014836573973298073,-0.001487853704020381,2.328887701034546,0.06133294105529785,-9.514618873596191
72278583000,-0.0007299645803868771,9.368231985718012e-05,-0.0026260612066835165,2.3386316299438477,0.030285239219665527,-9.535222053527832
72285511000,-0.0010869877878576517,-0.0005452397745102644,0.0036721336655318737,2.3557844161987305,-0.10635650157928467,-9.52668571472168
72292436000,0.0022013005800545216,5.007884465157986e-05,-0.0014859127113595605,2.3287134170532227,0.06149864196777344,-9.515226364135742
72299383000,-0.001105820294469595,-0.001801470760256052,0.0008702380582690239,2.3199100494384766,-0.026908159255981445,-9.51011848449707
72313329000,-0.0008547010365873575,0.00027616549050435424,0.0037936654407531023,2.350240707397461,-0.09419596195220947,-9.530275344848633
72320184000,0.0019093856681138277,0.0005809589056298137,-0.0016749190399423242,2.325073719024658,0.07013082504272461,-9.52286434173584
72327167000,-0.0007400376489385962,0.0005140978610143065,-0.002514540683478117,2.3383822441101074,0.023380637168884277,-9.536194801330566
72334105000,-0.0011886091670021415,-0.00029266258934512734,0.0035094893537461758,2.352598190307617,-0.10097336769104004,-9.530607223510742
72341032000,0.002079528523609042,-1.6078585758805275e-05,-0.0015295252669602633,2.327578544616699,0.059499263763427734,-9.520465850830078
72354904000,0.00041302386671304703,-0.0007920422940514982,-0.00232295342721045,2.3002190589904785,0.03383588790893555,-9.504496574401855
72362016000,-0.000993435736745596,-0.0012160461628809571,0.0037614754401147366,2.358128070831299,-0.09710371494293213,-9.532696723937988
72368812000,0.002151803346350789,-0.0003958442248404026,-0.0014851692831143737,2.3296589851379395,0.06390416622161865,-9.514358520507812
72375776000,-0.0007396716391667724,-9.257858619093895e-05,-0.0026472860481590033,2.338992118835449,0.03046262264251709,-9.534427642822266
72389620000,-1.8551712855696678e-05,-0.0008555917884223163,0.0013898585457354784,2.350961208343506,-0.025491714477539062,-9.506631851196289
72396647000,0.0004224005388095975,0.0021367648150771856,-0.001855881535448134,2.366116762161255,0.048108458518981934,-9.542375564575195
72403524000,-0.000992204761132598,0.001070988131687045,0.0036125779151916504,2.3485822677612305,-0.0867605209350586,-9.53209114074707
72410531000,0.0019323958549648523,0.001074876869097352,-0.0015399238327518106,2.3249855041503906,0.06344354152679443,-9.525544166564941
72417417000,-0.0006252520252019167,0.002188639249652624,0.00024998036678880453,2.3691821098327637,-0.018386244773864746,-9.562599182128906
72431349000,-0.0004893654258921742,0.00112373405136168,0.00028472812846302986,2.374861240386963,-0.03838050365447998,-9.561692237854004
72438280000,0.0008669111412018538,-0.0013172768522053957,-0.0021110752131789923,2.300426959991455,0.025383591651916504,-9.50490665435791
72445271000,-0.0007960076909512281,-0.0016166551504284143,0.0038532845210283995,2.358534097671509,-0.09358477592468262,-9.53422737121582
72452119000,0.0019463328644633293,-0.0006289094453677535,-0.0016263669822365046,2.329482078552246,0.07046377658843994,-9.513760566711426
72466044000,8.788140257820487e-05,0.0011576723773032427,-0.0021461728028953075,2.369174003601074,0.04278528690338135,-9.532285690307617
72472959000,-0.0008843232644721866,0.00022628536680713296,0.0037475088611245155,2.352221965789795,-0.09648633003234863,-9.529644012451172
72479965000,0.002088792622089386,0.0005778155755251646,-0.0014847606653347611,2.326636552810669,0.06459283828735352,-9.519147872924805
72486848000,-0.0007293159142136574,0.0006981035694479942,-0.0026430636644363403,2.3376526832580566,0.029986023902893066,-9.53701400756836
72493974000,-0.0011009672889485955,-0.0002631107345223427,0.0036579552106559277,2.353437900543213,-0.10453224182128906,-9.530194282531738
72507829000,-0.0006366845918819308,0.00019052444258704782,-0.0025885640643537045,2.3376502990722656,0.032600998878479004,-9.536736488342285
72514841000,-0.0010907509131357074,-0.0007404538337141275,0.0037569422274827957,2.3538870811462402,-0.10668325424194336,-9.528646469116211
72521727000,0.0023853175807744265,-0.00019699637778103352,-0.0012752534821629524,2.329644203186035,0.05825233459472656,-9.516793251037598
72528706000,-0.001150209573097527,-0.0019763289019465446,0.000734623521566391,2.3179354667663574,-0.01960146427154541,-9.510201454162598
72542550000,-0.0007654500659555197,0.0001644474978093058,0.0039157443679869175,2.352466583251953,-0.10217082500457764,-9.530275344848633
72549503000,0.002242196584120393,0.0003979426110163331,-0.001445153378881514,2.324861526489258,0.06668484210968018,-9.520968437194824
72556444000,-0.00046092935372143984,0.0017124124569818377,0.00039177489816211164,2.3715224266052246,-0.01840972900390625,-9.560874938964844
72563449000,0.00037503978819586337,-0.0005701661575585604,-0.002334028482437134,2.2993767261505127,0.03383135795593262,-9.504965782165527
72577284000,0.0021322143729776144,-0.000388392829336226,-0.0014811333967372775,2.3282790184020996,0.06380808353424072,-9.517587661743164
72584200000,-0.0007244537118822336,-0.00013134500477463007,-0.002641355386003852,2.338621139526367,0.030238628387451172,-9.535202980041504
72591132000,-0.0010633565252646804,-0.0007903322693891823,0.0037381418514996767,2.355806589126587,-0.10783743858337402,-9.5257568359375
72598138000,0.0022460096515715122,-0.00011459784582257271,-0.0014692185213789344,2.3291573524475098,0.06223249435424805,-9.513983726501465
72605051000,-0.0011219213483855128,-0.001949422643519938,0.0008726418018341064,2.3199572563171387,-0.02634263038635254,-9.509380340576172
72618932000,-0.0008188567589968443,0.00030090429936535656,0.0037835899274796247,2.3506226539611816,-0.09434592723846436,-9.530292510986328
72625915000,0.0020969139877706766,0.0005109204212203622,-0.0014845174737274647,2.325695037841797,0.06556487083435059,-9.522377014160156
72632852000,-0.0007931029540486634,0.0005595459369942546,-0.0026527512818574905,2.336939811706543,0.0305403470993042,-9.536495208740234
72639742000,-0.0011097048409283161,-0.0003223828971385956,0.0036480349954217672,2.3542966842651367,-0.10660326480865479,-9.530741691589355
72653641000,-0.0007463964866474271,8.91111558303237e-05,-0.0026351932901889086,2.338031530380249,0.03028082847595215,-9.536139488220215
72660665000,-0.0011049580061808228,-0.0007206330774351954,0.003664335235953331,2.3546905517578125,-0.10636866092681885,-9.528984069824219
72667551000,0.002218018053099513,-0.00018215668387711048,-0.0014844362158328295,2.3282365798950195,0.06114673614501953,-9.515945434570312
72674462000,-0.0007293771486729383,8.059840183705091e-05,-0.0026230860967189074,2.338797092437744,0.030388236045837402,-9.535417556762695
72681462000,-0.0011018933728337288,-0.0006253563915379345,0.0036674642469733953,2.355365514755249,-0.10614895820617676,-9.527360916137695
72695430000,-0.0011285693617537618,-0.0019083329243585467,0.0009024089085869491,2.31951904296875,-0.02732110023498535,-9.509175300598145
72702303000,0.00022839498706161976,0.0013178386725485325,-0.001992998644709587,2.3692922592163086,0.037050485610961914,-9.537968635559082
72709258000,-0.0008325266535393894,0.0002819140499923378,0.0037951203994452953,2.3504865169525146,-0.09412288665771484,-9.530290603637695
72716198000,0.0019080220954492688,0.0005502044223248959,-0.001672233222052455,2.324782371520996,0.0702366828918457,-9.522830963134766
72730110000,-0.0011720556067302823,-0.00029194290982559323,0.003503979416564107,2.3524889945983887,-0.10067236423492432,-9.530502319335938
72737038000,0.0020705522038042545,-4.699826240539551e-05,-0.0015166789526119828,2.327475070953369,0.059337496757507324,-9.520760536193848
72744009000,-0.00042224739445373416,0.0013232545461505651,0.00038710577064193785,2.3721389770507812,-0.020652174949645996,-9.55976390838623
72750894000,0.0004151752218604088,-0.0008290893165394664,-0.002319993684068322,2.3004517555236816,0.033530354499816895,-9.50429916381836
72757823000,-0.0010137306526303291,-0.0012211711145937443,0.0037664077244699,2.358394145965576,-0.09700822830200195,-9.532665252685547
72771725000,-0.0007570863235741854,-0.0001055144821293652,-0.0026318866293877363,2.338870048522949,0.03053879737854004,-9.534102439880371
72778732000,-0.001481364481151104,-0.0020226524211466312,0.0007364865159615874,2.3217806816101074,-0.05775129795074463,-9.499208450317383
72785617000,0.00014367041876539588,-0.000852928264066577,0.001519575365819037,2.352047920227051,-0.027252793312072754,-9.507144927978516
72792600000,0.00039624457713216543,0.0020985330920666456,-0.001924916752614081,2.3637614250183105,0.052727580070495605,-9.54221248626709
72799563000,-0.0009144905488938093,0.000974562019109726,0.0038570286706089973,2.350442409515381,-0.09285938739776611,-9.532060623168945
72813448000,-0.0005238828016445041,0.0021393040660768747,0.00037195690674707294,2.3696253299713135,-0.01938176155090332,-9.562545776367188
72820343000,0.00036462571006268263,-0.00030318149947561324,-0.002339552855119109,2.2982778549194336,0.03330826759338379,-9.507537841796875
72827343000,-0.0006291057216003537,0.001123076188378036,0.0002443745906930417,2.375779151916504,-0.040293335914611816,-9.561827659606934
72834246000,0.0008519541588611901,-0.0013053042348474264,-0.002119900193065405,2.300638437271118,0.024173617362976074,-9.504735946655273
72841168000,-0.0007814682321622968,-0.001598705304786563,0.0038587828166782856,2.358626127243042,-0.09398090839385986,-9.53427791595459
72855072000,-0.001061245333403349,-0.0024072760716080666,0.0010126956040039659,2.3222403526306152,-0.0333859920501709,-9.507362365722656
72862075000,8.410622831434011e-05,0.0011562778381630778,-0.0021419976837933064,2.369250535964966,0.042810916900634766,-9.532418251037598
72868952000,-0.0008919114479795098,0.00021658127661794424,0.0037512003909796476,2.352184772491455,-0.09645652770996094,-9.529669761657715
72875896000,0.00209513446316123,0.0005732184508815408,-0.0014806223334744573,2.326673984527588,0.06450867652893066,-9.519170761108398
72889774000,-0.0011192169040441513,-0.0002717560564633459,0.003661263035610318,2.353684902191162,-0.106192946434021,-9.53022289276123
72896761000,0.00220448593609035,-7.207272574305534e-06,-0.0014806673862040043,2.3267364501953125,0.0610276460647583,-9.5201997756958
72903705000,-0.0006966397049836814,0.000178605318069458,-0.0026172520592808723,2.338315486907959,0.03009343147277832,-9.53690242767334
72910653000,-0.0011076403316110373,-0.0007020239136181772,0.0036839593667536974,2.3542537689208984,-0.10612630844116211,-9.529046058654785
72917565000,0.0021621272899210453,-0.0001489201094955206,-0.001461612991988659,2.3286733627319336,0.06139791011810303,-9.516901969909668
72931512000,0.00022613978944718838,0.0011738676112145185,-0.001989641459658742,2.3690264225006104,0.036809325218200684,-9.537370681762695
72938401000,-0.0007945088436827064,0.0001832426933106035,0.003790464485064149,2.3508169651031494,-0.0942070484161377,-9.530583381652832
72945420000,0.0020935575012117624,0.0004162795376032591,-0.0014733376447111368,2.3257062435150146,0.06563377380371094,-9.521589279174805
72952309000,-0.0006086116190999746,0.0017161043360829353,0.00027300065266899765,2.370272159576416,-0.0167844295501709,-9.560067176818848
72959237000,0.0004627613816410303,-0.0005111270002089441,-0.002179189585149288,2.302208423614502,0.0276871919631958,-9.506190299987793
72973123000,0.0019625783897936344,-0.0003604181110858917,-0.0016540918732061982,2.3274881839752197,0.06945693492889404,-9.517995834350586
72980095000,-0.0008316180901601911,-0.00014209409710019827,-0.0026973148342221975,2.3393187522888184,0.027759671211242676,-9.53493881225586
72987030000,-0.0010878993198275566,-0.000727158272638917,0.003650588681921363,2.3562769889831543,-0.10770630836486816,-9.525747299194336
72993979000,0.0022082424256950617,-0.00010390463285148144,-0.001479998929426074,2.3289976119995117,0.060976266860961914,-9.513858795166016
73000895000,-0.0011270750546827912,-0.0019434833666309714,0.0008732564747333527,2.3199405670166016,-0.02670609951019287,-9.50924015045166
73014812000,-0.0008195684058591723,0.0003035284753423184,0.003787002759054303,2.3506267070770264,-0.09419786930084229,-9.53032398223877
73021739000,0.002093675546348095,0.0005127722397446632,-0.0014811595901846886,2.3256900310516357,0.06558036804199219,-9.522448539733887
73028754000,-0.0009374396177008748,0.0005800217622891068,-0.0027514630928635597,2.3360509872436523,0.03314852714538574,-9.536311149597168
73035617000,-0.0012113929260522127,-0.00032435287721455097,0.003622286720201373,2.354928731918335,-0.10815155506134033,-9.530545234680176
73049565000,-0.0006801619310863316,0.00018515181727707386,-0.0026293122209608555,2.3385491371154785,0.029735088348388672,-9.536903381347656
73056492000,-0.0010832640109583735,-0.0006949761882424355,0.0036665676161646843,2.354165554046631,-0.10606753826141357,-9.528857231140137
73063442000,0.002204696647822857,-0.00019837613217532635,-0.0014795513125136495,2.3279995918273926,0.06129908561706543,-9.516386985778809
73070348000,-0.0007291062502190471,5.3447321988642216e-05,-0.0026199165731668472,2.3386623859405518,0.03034079074859619,-9.535351753234863
73077357000,-0.001056423643603921,-0.0006194039015099406,0.003675168612971902,2.355656147003174,-0.10646295547485352,-9.527731895446777
73091163000,-0.001106612617149949,-0.001917608780786395,0.0008786388789303601,2.319526195526123,-0.02712404727935791,-9.509245872497559
73098201000,0.00022809021174907684,0.0012911357916891575,-0.0019966349937021732,2.3693017959594727,0.03684675693511963,-9.53784465789795
73105083000,-0.000801609072368592,0.0002776348264887929,0.0037862916942685843,2.3505702018737793,-0.09421205520629883,-9.530394554138184
73112075000,0.0021380227990448475,0.0004395892610773444,-0.0014768983237445354,2.325108051300049,0.06533586978912354,-9.522089958190918
73125895000,-0.0012151157716289163,-0.0003412993100937456,0.0036306444089859724,2.355099678039551,-0.10827302932739258,-9.530473709106445
73132964000,0.0021759765222668648,-2.667633816599846e-05,-0.0014934261562302709,2.327083110809326,0.060332655906677246,-9.519874572753906
73139823000,-0.00034308480098843575,0.0014099511317908764,0.00039919628761708736,2.37270450592041,-0.02031886577606201,-9.560698509216309
73146859000,0.00041261373553425074,-0.0008077766397036612,-0.0023207333870232105,2.299884796142578,0.034181952476501465,-9.504110336303711
73160699000,0.0023354445584118366,-0.000452766427770257,-0.0012915503466501832,2.3305423259735107,0.059334516525268555,-9.514531135559082
73167615000,-0.0008273926796391606,-6.166985258460045e-05,-0.0027501292061060667,2.337441921234131,0.03725695610046387,-9.534700393676758
73174561000,-0.001569646643474698,-0.0020070094615221024,0.0006151412380859256,2.32228422164917,-0.05771911144256592,-9.499673843383789
73181576000,0.00010883493814617395,-0.0008870024466887116,0.0014912588521838188,2.3518004417419434,-0.029131412506103516,-9.50661849975586
73188470000,0.0005108144832774997,0.0020805755630135536,-0.001816675066947937,2.365194320678711,0.049492835998535156,-9.542414665222168
73202327000,0.0018611904233694077,0.0010888148099184036,-0.0015366619918495417,2.3258965015411377,0.06375908851623535,-9.52619743347168
73209272000,-0.0005135807441547513,0.002145813312381506,0.0003598799812607467,2.36965274810791,-0.02122175693511963,-9.562058448791504
73216280000,0.0003998878237325698,-0.0002973342197947204,-0.0023358340840786695,2.2983522415161133,0.032913923263549805,-9.507462501525879
73223163000,-0.0006187404505908489,0.001114120241254568,0.0002498449757695198,2.3756861686706543,-0.04017996788024902,-9.561641693115234
73237044000,-0.0007835834985598922,-0.001600401010364294,0.003860653843730688,2.358567714691162,-0.09380185604095459,-9.534248352050781
73244019000,0.0021531125530600548,-0.0006840599235147238,-0.001436786842532456,2.330057382583618,0.06596243381500244,-9.513663291931152
73250925000,-0.0011095395311713219,-0.0023793289437890053,0.0008755242452025414,2.3206396102905273,-0.026573896408081055,-9.507757186889648
73257862000,1.9410275854170322e-05,0.0011528264731168747,-0.002181597985327244,2.3699140548706055,0.04115259647369385,-9.532600402832031
73264830000,-0.000817701977211982,0.00010200409451499581,0.003945650067180395,2.352597951889038,-0.10129213333129883,-9.52854061126709
73278778000,-0.0007632892811670899,0.0006773850182071328,-0.002627782756462693,2.337576389312744,0.031716227531433105,-9.53714370727539
73285643000,-0.001157084945589304,-0.00026904523838311434,0.0036753409076482058,2.3537774085998535,-0.10625040531158447,-9.530158996582031
73292577000,0.0021723932586610317,5.74521254748106e-05,-0.0014799025375396013,2.3273348808288574,0.061231136322021484,-9.520703315734863
73299607000,-0.0006876805564388633,0.0002291346900165081,-0.002625364111736417,2.3380932807922363,0.03000950813293457,-9.53692626953125
73306475000,-0.0011090126354247332,-0.0006780308322049677,0.003684693481773138,2.3540658950805664,-0.10621500015258789,-9.529080390930176
73320369000,-0.0010807039216160774,-0.0020187310874462128,0.0008786133257672191,2.3196635246276855,-0.027022242546081543,-9.510061264038086
73327361000,0.00022957025794312358,0.001163640758022666,-0.001985820708796382,2.3690571784973145,0.03678786754608154,-9.53748607635498
73334282000,-0.0008012701291590929,0.00016802418394945562,0.003794095478951931,2.350787878036499,-0.09415185451507568,-9.530561447143555
73341191000,0.002091584727168083,0.00041416718158870935,-0.0014690794050693512,2.325814962387085,0.0655975341796875,-9.521573066711426
73348207000,-0.0004524453543126583,0.0017126966267824173,0.000380098819732666,2.3713512420654297,-0.019492268562316895,-9.560483932495117
73362059000,-0.0009510426316410303,-0.0009809089824557304,0.003763356013223529,2.358391761779785,-0.09769666194915771,-9.534956932067871
73368975000,0.0021172144915908575,-0.0004034795565530658,-0.0014703175984323025,2.328268527984619,0.06411254405975342,-9.517598152160645
73375909000,-0.0007065455429255962,-0.00012979144230484962,-0.002637520432472229,2.3386759757995605,0.030175209045410156,-9.535260200500488
73382890000,-0.0010721242288127542,-0.0007731056539341807,0.003664546413347125,2.3557896614074707,-0.10637140274047852,-9.525986671447754
73396845000,-0.0011041708057746291,-0.0019551701843738556,0.0008740788325667381,2.3199048042297363,-0.026971101760864258,-9.50915813446045
73403710000,0.00023261981550604105,0.001308800303377211,-0.0020008194260299206,2.3697328567504883,0.03683650493621826,-9.536920547485352
73410735000,-0.0007951991865411401,0.0002993200614582747,0.0037887219805270433,2.3507437705993652,-0.09432148933410645,-9.530390739440918
73417595000,0.002126332838088274,0.00047678197734057903,-0.001485491986386478,2.325312614440918,0.06562387943267822,-9.521998405456543
73424522000,-0.0007530937436968088,0.0005953079089522362,-0.0026511766482144594,2.3376684188842773,0.030463457107543945,-9.537239074707031
73438433000,0.0021651305723935366,-0.00010183965787291527,-0.0014802555087953806,2.3265750408172607,0.061284780502319336,-9.520523071289062
73445463000,-0.0007158555090427399,7.657893002033234e-05,-0.002623249776661396,2.3380470275878906,0.030091166496276855,-9.536151885986328
73452336000,-0.0010540374787524343,-0.0007299463031813502,0.0036776652559638023,2.354729652404785,-0.10650467872619629,-9.529073715209961
73459258000,0.002184485550969839,-0.00021217437461018562,-0.0014721115585416555,2.328157663345337,0.06163382530212402,-9.51598072052002
73466289000,-0.0007050675922073424,5.692953709512949e-05,-0.002610703930258751,2.338775873184204,0.030071258544921875,-9.535248756408691
73480133000,0.0021519458387047052,-3.904243931174278e-05,-0.0014632570091634989,2.3288984298706055,0.06142115592956543,-9.515482902526855
73487076000,-0.0010968775022774935,-0.0019010829273611307,0.0008781819487921894,2.3195035457611084,-0.026999711990356445,-9.509174346923828
73494058000,0.00022411160171031952,0.0013026156229898334,-0.0019993255846202374,2.3692567348480225,0.03696036338806152,-9.53788948059082
73500931000,-0.0008174232207238674,0.0002808772842399776,0.003790681716054678,2.3505911827087402,-0.09425556659698486,-9.530320167541504
73507863000,0.001973717240616679,0.00047141010873019695,-0.0015790414763614535,2.324312448501587,0.0682610273361206,-9.521981239318848
73521758000,-0.000972920039203018,-0.0003235883777961135,0.003701015142723918,2.3532907962799072,-0.10457837581634521,-9.530583381652832
73528739000,0.0021779064554721117,-0.0001112278550863266,-0.001471813302487135,2.326206684112549,0.06254041194915771,-9.520855903625488
73535641000,-0.00039285607635974884,0.0012909952783957124,0.0003991688718087971,2.3722665309906006,-0.019690871238708496,-9.560121536254883
73542597000,0.00040157907642424107,-0.0008518677204847336,-0.002325567416846752,2.3004841804504395,0.03405499458312988,-9.504390716552734
73549602000,-0.0013110085856169462,-0.0025537279434502125,0.000746049452573061,2.323835849761963,-0.04738974571228027,-9.50747299194336
73563493000,0.00028282159473747015,0.0017994827358052135,-0.0020097072701901197,2.3649230003356934,0.05428338050842285,-9.54023265838623
73570383000,-0.0005842158570885658,0.0027117147110402584,0.000245015078689903,2.368840456008911,-0.03573179244995117,-9.55545711517334
73577371000,0.001156637561507523,0.0014421793166548014,0.0008867584401741624,2.3342788219451904,-0.025241851806640625,-9.529815673828125
73584291000,0.0008678663289174438,-0.000544049427844584,-0.002159469062462449,2.3010339736938477,0.04565882682800293,-9.511811256408691
73591192000,-0.0010504561942070723,-0.0010943911038339138,0.0038041702937334776,2.3574624061584473,-0.09238147735595703,-9.536982536315918
73605103000,-0.0013121420051902533,-0.0024379901587963104,0.0008142948499880731,2.319887161254883,-0.029663562774658203,-9.509271621704102
73612107000,0.00020835152827203274,0.0009856590768322349,-0.002014024881646037,2.370820999145508,0.03499293327331543,-9.53475284576416
73618996000,-0.0007734993123449385,2.2514432203024626e-05,0.0037872768007218838,2.3510940074920654,-0.09476077556610107,-9.530144691467285
73625978000,0.0019345582695677876,0.0004356444114819169,-0.001661345362663269,2.325629234313965,0.07009625434875488,-9.51927661895752
73639825000,-0.0009924754267558455,-0.0004391956317704171,0.00384921976365149,2.354966163635254,-0.11194038391113281,-9.52949047088623
73646806000,0.002183278789743781,1.2230593711137772e-06,-0.0016221959376707673,2.3256447315216064,0.06788480281829834,-9.518683433532715
73653702000,-0.0005822560633532703,0.00016555888578295708,-0.002478797687217593,2.3402912616729736,0.024341940879821777,-9.537001609802246
73660738000,-0.0009834711672738194,-0.0006702307146042585,0.0037178806960582733,2.3536431789398193,-0.104300856590271,-9.528949737548828
73667642000,0.002183765871450305,-0.00015134969726204872,-0.0014634906547144055,2.328176975250244,0.06260144710540771,-9.516928672790527
73681558000,-0.0010488842381164432,-0.0006289504235610366,0.003677374916151166,2.355241060256958,-0.10634970664978027,-9.527921676635742
73688441000,0.002208460820838809,-0.00011172913946211338,-0.0014738570898771286,2.328080177307129,0.06154167652130127,-9.515275955200195
73695431000,-0.0011315435403957963,-0.0019762488082051277,0.0008895054343156517,2.3197121620178223,-0.02686154842376709,-9.509331703186035
73702332000,0.00022705155424773693,0.0012914063408970833,-0.0019894454162567854,2.369739532470703,0.03678417205810547,-9.537698745727539
73716244000,0.0019436958245933056,0.0005053599597886205,-0.0016534528695046902,2.324493885040283,0.07000863552093506,-9.522225379943848
73723190000,-0.0008264080970548093,0.000604841741733253,-0.0026980573311448097,2.3384761810302734,0.027659177780151367,-9.537187576293945
73730173000,-0.0009916673880070448,-0.00042632006807252765,0.003853077767416835,2.3543505668640137,-0.11177575588226318,-9.529594421386719
73737043000,0.0021680030040442944,-5.93231525272131e-05,-0.0016169094014912844,2.3252005577087402,0.06795239448547363,-9.520182609558105
73750976000,0.000562573317438364,-0.000846653594635427,-0.0022724070586264133,2.2998461723327637,0.03517031669616699,-9.504237174987793
73757867000,-0.0008303530630655587,-0.0012916508130729198,0.003978227265179157,2.359302043914795,-0.10013246536254883,-9.533092498779297
73764847000,0.0022681616246700287,-0.0004360363818705082,-0.0014268727973103523,2.3287558555603027,0.06697499752044678,-9.514429092407227
73771797000,-0.0011526304297149181,-0.002229404402896762,0.0008676176657900214,2.3200783729553223,-0.025276780128479004,-9.508819580078125
73778811000,0.0001991560566239059,0.0011890153400599957,-0.0020068457815796137,2.3704960346221924,0.036740660667419434,-9.534698486328125
73792586000,0.0006100516766309738,0.0029140205588191748,0.0008519805851392448,2.4004626274108887,-0.012700319290161133,-9.563082695007324
73799630000,0.0008332825964316726,0.0004906106041744351,-0.0020299034658819437,2.2977709770202637,0.039592623710632324,-9.507879257202148
73806523000,-0.0009360561380162835,-0.0001373115519527346,0.0038172025233507156,2.3556289672851562,-0.09111058712005615,-9.536690711975098
73813526000,0.0019078762270510197,7.181009277701378e-05,-0.0015836082166060805,2.324747085571289,0.06855320930480957,-9.525259971618652
73820400000,-0.0006264115800149739,0.00011197425192221999,-0.002494526095688343,2.339174270629883,0.024018049240112305,-9.537479400634766
73834306000,0.002194191562011838,-0.0003312986809760332,-0.001464444794692099,2.3275980949401855,0.06237232685089111,-9.517545700073242
73841192000,-0.0007189154857769608,-0.00010255794040858746,-0.002620343817397952,2.338334560394287,0.03048074245452881,-9.535337448120117
73848223000,-0.0011145762400701642,-0.0007569467416033149,0.00367553299292922,2.355611562728882,-0.10610508918762207,-9.526445388793945
73855129000,0.002207537181675434,-9.460840374231339e-05,-0.0014706779038533568,2.329054355621338,0.0611116886138916,-9.514327049255371
73868988000,-0.0011278317542746663,-0.0005447902367450297,0.0036819821689277887,2.3554534912109375,-0.10605132579803467,-9.527010917663574
73875931000,0.0022221889812499285,4.7578709200024605e-05,-0.001463818596675992,2.3287158012390137,0.06095123291015625,-9.515630722045898
73882958000,-0.0011413788888603449,-0.0018332734471186996,0.0008930375333875418,2.3197102546691895,-0.026612520217895508,-9.509747505187988
73889824000,0.00021906301844865084,0.0013546599075198174,-0.0019848451483994722,2.3691654205322266,0.03674507141113281,-9.538656234741211
73896813000,-0.0008034536149352789,0.00032472627935931087,0.0037961951456964016,2.3506526947021484,-0.09420156478881836,-9.530843734741211
73910680000,-0.000914833159185946,0.0005630386294797063,-0.002746134763583541,2.33598256111145,0.03307974338531494,-9.536520957946777
73917641000,-0.0011741580674424767,-0.00035244625178165734,0.0036348383873701096,2.354779005050659,-0.1083601713180542,-9.530618667602539
73924542000,0.0021640341728925705,-8.408562280237675e-05,-0.0014825013931840658,2.326871871948242,0.060515642166137695,-9.520115852355957
73931608000,-0.00039622565964236856,0.0013056634925305843,0.0004030477430205792,2.3722610473632812,-0.019985556602478027,-9.560103416442871
73945512000,-0.00132464780472219,-0.0025555561296641827,0.0007531970040872693,2.323869466781616,-0.046759843826293945,-9.50758171081543
73952410000,0.00010820943862199783,-0.0013079140335321426,0.0015967568615451455,2.352825164794922,-0.027087688446044922,-9.507343292236328
73959336000,0.0003450005315244198,0.0018035027896985412,-0.001992580946534872,2.363994598388672,0.055254459381103516,-9.540010452270508
73966333000,-0.0006042267195880413,0.00270047876983881,0.000247002491960302,2.368711471557617,-0.035030245780944824,-9.5555419921875
73980209000,0.0009248314308933914,-0.000584412133321166,-0.0020054816268384457,2.3031139373779297,0.03970539569854736,-9.512007713317871
73987123000,-0.0008667773799970746,-0.0010150294983759522,0.0038332012481987476,2.357489824295044,-0.09084093570709229,-9.537885665893555
73994092000,0.0020600389689207077,-0.000554021680727601,-0.0014630972873419523,2.3272690773010254,0.06602263450622559,-9.520809173583984
74001074000,-0.0007458887994289398,-0.0003617372130975127,-0.0026353418361395597,2.33804988861084,0.03014695644378662,-9.535308837890625
74007947000,-0.0010887251701205969,-0.0009466770570725203,0.003671756014227867,2.356174945831299,-0.10658454895019531,-9.525264739990234
74021846000,-0.0011089690960943699,-0.002042508451268077,0.000883952365256846,2.320192337036133,-0.026685595512390137,-9.509262084960938
74028958000,6.316113285720348e-05,0.0013108976418152452,-0.0021004960872232914,2.368668556213379,0.038976073265075684,-9.53528881072998
74035872000,-0.0009089781669899821,0.0002770003047771752,0.0038566843140870333,2.3520703315734863,-0.09749352931976318,-9.530467987060547
74042788000,0.0019496475579217076,0.0006201914511620998,-0.0016473359428346157,2.3251588344573975,0.07015872001647949,-9.521435737609863
74049768000,-0.0006402602302841842,0.0006394065567292273,-0.0025027471128851175,2.3391542434692383,0.023342013359069824,-9.537214279174805
74063676000,0.0021978188306093216,-0.0001017390750348568,-0.0014732601121068,2.3261733055114746,0.06254470348358154,-9.521050453186035
74070600000,-0.0007185398135334253,6.502051837742329e-05,-0.0026210444048047066,2.3380699157714844,0.03036642074584961,-9.536420822143555
74077574000,-0.0010920281056314707,-0.0007568014552816749,0.0036750787403434515,2.3546524047851562,-0.10608816146850586,-9.52914047241211
74084505000,0.002193867228925228,-0.0002154349349439144,-0.0014523037243634462,2.3284478187561035,0.06100177764892578,-9.515904426574707
74098503000,-0.0010394263081252575,-0.0006194886518642306,0.003676311345770955,2.355644464492798,-0.10625982284545898,-9.527522087097168
74105298000,0.002219457644969225,-0.00010184687562286854,-0.0014601584989577532,2.328137159347534,0.061287879943847656,-9.514972686767578
74112341000,-0.0010819017188623548,-0.0019071544520556927,0.0008890867466107011,2.3203134536743164,-0.026814937591552734,-9.509973526000977
74119254000,0.00023987353779375553,0.0012774994829669595,-0.0019862086046487093,2.369201898574829,0.03692328929901123,-9.537779808044434
74126141000,-0.0007881211931817234,0.00026855553733184934,0.003795273369178176,2.350660800933838,-0.094199538230896,-9.530496597290039
74140040000,-0.0007871694397181273,0.0005096280947327614,-0.0026320195756852627,2.3371591567993164,0.030443310737609863,-9.536466598510742
74147041000,-0.0011000146623700857,-0.00035895800101570785,0.00366891548037529,2.3543567657470703,-0.10663795471191406,-9.530569076538086
74153975000,0.002179122297093272,-8.714967407286167e-05,-0.0014719137689098716,2.3267815113067627,0.061255812644958496,-9.520109176635742
74160859000,-0.0007223788416013122,8.854770567268133e-05,-0.0026126436423510313,2.3380074501037598,0.030162572860717773,-9.535977363586426
74174746000,0.002209351398050785,-0.0001871876884251833,-0.0014596922555938363,2.3281092643737793,0.061299681663513184,-9.5159912109375
74181771000,-0.000719551055226475,7.451197598129511e-05,-0.0026028461288660765,2.3386967182159424,0.030360698699951172,-9.535245895385742
74188648000,-0.0010845124488696456,-0.0006219793576747179,0.003687785705551505,2.355403423309326,-0.1062002182006836,-9.52743911743164
74195661000,0.002182905562222004,-3.641610965132713e-05,-0.0014555547386407852,2.3287062644958496,0.0613325834274292,-9.515555381774902
74209493000,0.00023577013052999973,0.0013259054394438863,-0.001983418595045805,2.3694422245025635,0.03671383857727051,-9.537999153137207
74216462000,-0.000837393628899008,0.0002789140271488577,0.003807641798630357,2.3503122329711914,-0.09411334991455078,-9.530121803283691
74223423000,0.0020888992585241795,0.0005101383430883288,-0.0014605156611651182,2.3258495330810547,0.06551098823547363,-9.522871971130371
74230410000,-0.00047396321315318346,0.0017761203926056623,0.00039747965638525784,2.3710989952087402,-0.019536852836608887,-9.560431480407715
74237325000,0.0003877760609611869,-0.00045273316209204495,-0.0023246007040143013,2.299891948699951,0.033637166023254395,-9.505919456481934
74251249000,0.0021246173419058323,-0.00040754058863967657,-0.0014626069460064173,2.3281004428863525,0.0638202428817749,-9.518417358398438
74258101000,-0.0007301279692910612,-0.00017007696442306042,-0.0026251457165926695,2.3384246826171875,0.030273914337158203,-9.534996032714844
74265087000,-0.0008877371437847614,-0.0008039226522669196,0.0038651367649435997,2.3570621013641357,-0.11081147193908691,-9.52640438079834
74272023000,0.002131202258169651,-0.00012541352771222591,-0.0016069188714027405,2.327136754989624,0.06877779960632324,-9.514181137084961
74278996000,-0.0010582593968138099,-0.002018011873587966,0.001029121340252459,2.3215818405151367,-0.03254425525665283,-9.509210586547852
74292892000,-0.0009689225698821247,0.000271766388323158,0.003761690342798829,2.351186752319336,-0.0960545539855957,-9.529769897460938
74299904000,0.0020852459128946066,0.0005753739969804883,-0.0014766980893909931,2.3264780044555664,0.06427562236785889,-9.521748542785645
74309841000,-0.0016137291677296162,-0.00045289320405572653,0.0019340668804943562,2.34218168258667,-0.10499703884124756,-9.519819259643555
74316579000,0.0008750202832743526,0.0005728332907892764,-0.005900253541767597,2.3236498832702637,0.11001992225646973,-9.52629280090332
74323447000,-0.0019546907860785723,-0.0003023301251232624,0.003192408010363579,2.3664655685424805,-0.13792455196380615,-9.539712905883789
74337268000,0.001032510306686163,-0.000730000960174948,-0.0020165592432022095,2.3009514808654785,0.06235384941101074,-9.513267517089844
74344259000,-0.0014674053527414799,-0.002481729257851839,0.0007677986286580563,2.322843551635742,-0.03846335411071777,-9.509218215942383
74351187000,4.088191781193018e-05,0.0009084164630621672,-0.00216674548573792,2.3697733879089355,0.03687894344329834,-9.535651206970215
74358137000,-0.0007023852085694671,-9.780918480828404e-05,0.003966914024204016,2.3530852794647217,-0.10187792778015137,-9.52991008758545
74365089000,0.002270821016281843,0.00029286928474903107,-0.0014070570468902588,2.325775623321533,0.06709933280944824,-9.518617630004883
74379006000,0.0003648275160230696,-0.0005416262429207563,-0.002309624571353197,2.2999253273010254,0.0340958833694458,-9.504838943481445
74385948000,-0.0009614526643417776,-0.0009594032308086753,0.003774401731789112,2.358389377593994,-0.09752237796783447,-9.534322738647461
74392852000,0.002293253317475319,-0.0003964169882237911,-0.0012688315473496914,2.3294601440429688,0.05974090099334717,-9.516987800598145
74399879000,-0.0011751903221011162,-0.0021661764476448298,0.0007269352208822966,2.317953586578369,-0.01972639560699463,-9.509293556213379
74413758000,-0.0007642726413905621,0.00011008497676812112,0.003924418240785599,2.352451801300049,-0.10238492488861084,-9.529500007629395
74420670000,0.002245464129373431,0.0004151610191911459,-0.0014314617728814483,2.3254640102386475,0.06659877300262451,-9.519911766052246
74427554000,-0.0007506674155592918,0.0005512885982170701,-0.0026184036396443844,2.337603807449341,0.03145182132720947,-9.536809921264648
74434524000,-0.0011026387801393867,-0.0003378293476998806,0.003667143639177084,2.354203224182129,-0.10617351531982422,-9.530174255371094
74448430000,-0.0007339277653954923,0.0001233060611411929,-0.0026158650871366262,2.3379454612731934,0.030147910118103027,-9.535828590393066
74455342000,-0.0011188534554094076,-0.0006947727524675429,0.003683644812554121,2.35467529296875,-0.10621941089630127,-9.528804779052734
74462358000,0.0021750163286924362,-0.00011038081720471382,-0.0014635544503107667,2.3288192749023438,0.061301589012145996,-9.516481399536133
74469274000,-0.0007107752608135343,0.0001231577480211854,-0.0026064154226332903,2.338412284851074,0.03010869026184082,-9.535161972045898
74476146000,-0.000912092684302479,-0.0006443508900702,0.0038749210070818663,2.3562450408935547,-0.11042654514312744,-9.527830123901367
74490051000,-0.0010823379270732403,-0.0019723116420209408,0.0010368204675614834,2.3212456703186035,-0.03236973285675049,-9.509320259094238
74497081000,0.00010906020179390907,0.0013502540532499552,-0.0021282571833580732,2.368010997772217,0.04277992248535156,-9.537869453430176
74504027000,-0.0009347446030005813,0.00028933011344633996,0.003756306366994977,2.3511288166046143,-0.09595596790313721,-9.530162811279297
74510980000,0.0021240664646029472,0.0004938844358548522,-0.0014776497846469283,2.325557231903076,0.0641547441482544,-9.521839141845703
74517896000,-0.0007630391046404839,0.0006000982830300927,-0.0026354107540100813,2.337594985961914,0.030379772186279297,-9.537036895751953
74531819000,0.002171785570681095,-6.442330777645111e-05,-0.0014684101333841681,2.3266265392303467,0.06121683120727539,-9.520674705505371
74538685000,-0.0007338063442148268,8.907064329832792e-05,-0.0026072910986840725,2.3378448486328125,0.030159473419189453,-9.535897254943848
74545663000,-0.0011192706879228354,-0.0007178659434430301,0.0036838045343756676,2.354595184326172,-0.10608863830566406,-9.528885841369629
74552581000,0.002155422931537032,-0.00012392224743962288,-0.0014609812060371041,2.3288421630859375,0.061365723609924316,-9.516556739807129
74566505000,-0.0009021051228046417,-0.000655211100820452,0.003879653522744775,2.3559727668762207,-0.11046373844146729,-9.527790069580078
74573446000,0.0021735462360084057,-7.194560021162033e-05,-0.0015982240438461304,2.3262417316436768,0.0685417652130127,-9.515349388122559
74580431000,-0.001033289241604507,-0.0019448716193437576,0.0010485826060175896,2.3218681812286377,-0.03262066841125488,-9.50999641418457
74587274000,9.975535795092583e-05,0.0013104848330840468,-0.002115839160978794,2.36726713180542,0.04306507110595703,-9.537515640258789
74594218000,-0.0009542580810375512,0.0002559851564001292,0.0037740878760814667,2.35117244720459,-0.09598422050476074,-9.52997875213623
74608168000,-0.00043912394903600216,0.0018261654768139124,0.0003963522904086858,2.371767997741699,-0.01961696147918701,-9.560970306396484
74615162000,0.000370873516658321,-0.00042102692532353103,-0.002320655155926943,2.299715518951416,0.03383827209472656,-9.50583553314209
74622002000,-0.0009747127187438309,-0.000917067751288414,0.003768611466512084,2.357736825942993,-0.09749734401702881,-9.534784317016602
74629027000,0.0023341195192188025,-0.0004447433166205883,-0.0012794577050954103,2.328716278076172,0.059531331062316895,-9.51842212677002
74635939000,-0.0008176606497727334,-0.00010653852950781584,-0.002764178439974785,2.33685040473938,0.037627458572387695,-9.53554630279541
74649834000,0.00213800766505301,-9.470316581428051e-05,-0.0014781977515667677,2.3295745849609375,0.060234665870666504,-9.513833045959473
74656759000,-0.0007060646894387901,0.00016281264834105968,-0.002606816589832306,2.338665008544922,0.029651641845703125,-9.53464412689209
74663769000,-0.001102879294194281,-0.000546469003893435,0.0036907976027578115,2.355341672897339,-0.10613203048706055,-9.526687622070312
74670606000,0.00220687547698617,6.1441445723176e-05,-0.0014607877237722278,2.328930377960205,0.06128418445587158,-9.515600204467773
74684546000,0.0002209114609286189,0.001359037240035832,-0.0019862314220517874,2.3689866065979004,0.03673100471496582,-9.538491249084473
74691458000,-0.0007796958088874817,0.0003494563279673457,0.0038026031106710434,2.3508846759796143,-0.0944434404373169,-9.530895233154297
74698486000,0.0019118787022307515,0.0005037906812503934,-0.0015748408623039722,2.3244071006774902,0.0689619779586792,-9.523165702819824
74705363000,-0.0006722341058775783,0.000504185154568404,-0.0024801853578537703,2.3386547565460205,0.02418506145477295,-9.53641128540039
74719243000,0.00218651769682765,-0.00011396803893148899,-0.0014648705255240202,2.326328754425049,0.06262075901031494,-9.520689010620117
74726213000,-0.0007329373620450497,6.477418355643749e-05,-0.00261406390927732,2.3380179405212402,0.030408740043640137,-9.53596019744873
74733202000,-0.00107749761082232,-0.0007140873931348324,0.003673217259347439,2.354891300201416,-0.1062391996383667,-9.529073715209961
74740068000,0.002192314714193344,-0.00018390128389000893,-0.0014638180145993829,2.328202724456787,0.06124734878540039,-9.515800476074219
74747081000,-0.0007042214274406433,9.742914699018002e-05,-0.002605409361422062,2.338869571685791,0.030165433883666992,-9.535331726074219
74760885000,0.002168437000364065,-2.836482599377632e-05,-0.0014580243732780218,2.32873797416687,0.06165516376495361,-9.515640258789062
74767874000,-0.0011334444861859083,-0.0019125603139400482,0.0008922270499169827,2.3193397521972656,-0.026857852935791016,-9.508916854858398
74774787000,0.00023271201644092798,0.0013327642809599638,-0.001985300099477172,2.3695068359375,0.03671622276306152,-9.537909507751465
74781792000,-0.0008455580100417137,0.00028282820130698383,0.00380758848041296,2.350346565246582,-0.09410595893859863,-9.530024528503418
74795744000,-0.000487046898342669,0.001786119886673987,0.0003893284301739186,2.3709874153137207,-0.019515633583068848,-9.560251235961914
74802552000,0.00036640401231124997,-0.0004291263467166573,-0.0023217424750328064,2.3000335693359375,0.03351032733917236,-9.505992889404297
74809512000,-0.0009904619073495269,-0.0009403512813150883,0.003772151190787554,2.3575873374938965,-0.09751558303833008,-9.534539222717285
74816484000,0.0021440861746668816,-0.00038657686673104763,-0.0014657878782600164,2.3280410766601562,0.06382322311401367,-9.518369674682617
74830446000,-0.0012629020493477583,-0.0021300571970641613,0.000847881892696023,2.3225512504577637,-0.06073331832885742,-9.501161575317383
74837276000,0.0003835901734419167,0.0010765839833766222,-0.002018159721046686,2.368170738220215,0.034940361976623535,-9.532878875732422
74844264000,-0.0007823900668881834,0.00018898499547503889,0.0038391791749745607,2.352738857269287,-0.09478437900543213,-9.530912399291992
74851237000,0.0021534436382353306,0.0005215341225266457,-0.0014478839002549648,2.3262434005737305,0.06575894355773926,-9.520498275756836
74865172000,0.00036706216633319855,-0.0004037046164739877,-0.0023084557615220547,2.2997162342071533,0.03387045860290527,-9.505560874938965
74872063000,-0.0009966716170310974,-0.0009144069626927376,0.0037838954012840986,2.3576579093933105,-0.09746778011322021,-9.534464836120605
74879007000,0.0021611254196614027,-0.000358163146302104,-0.001454880810342729,2.328099489212036,0.06369280815124512,-9.518291473388672
74885944000,-0.001169675262644887,-0.002257952932268381,0.0008837137138471007,2.3194353580474854,-0.026493072509765625,-9.509194374084473
74892860000,0.0002196502173319459,0.0011208581272512674,-0.001991755561903119,2.370466709136963,0.03656816482543945,-9.536398887634277
74899853000,-0.0008138811681419611,0.00010661690612323582,0.0037987870164215565,2.350627899169922,-0.0943155288696289,-9.529736518859863
74913821000,-0.0007695232634432614,0.0005452672485262156,-0.002630909439176321,2.3373072147369385,0.03044295310974121,-9.536311149597168
74920601000,-0.0010973429307341576,-0.0003305646823719144,0.0036698461044579744,2.3542580604553223,-0.10654771327972412,-9.530263900756836
74927601000,0.002171778352931142,-2.9039569199085236e-05,-0.001471037743613124,2.32696533203125,0.06132066249847412,-9.519696235656738
74934550000,-0.0007427499513141811,0.00013017572928220034,-0.0026123137213289738,2.3379201889038086,0.03025186061859131,-9.535871505737305
74948468000,0.0021921463776379824,-0.00010590697638690472,-0.001458674669265747,2.328695774078369,0.06119859218597412,-9.516411781311035
74955334000,-0.0007134099141694605,0.00013025500811636448,-0.002608202863484621,2.33842134475708,0.03033447265625,-9.53527545928955
74962368000,-0.0010684813605621457,-0.0006398761179298162,0.0037677946966141462,2.355055809020996,-0.10770237445831299,-9.527373313903809
74969265000,0.0022538802586495876,-6.003654561936855e-05,-0.0013576142955571413,2.328793525695801,0.060755252838134766,-9.515520095825195
74976180000,-0.0004691020294558257,0.00020309962565079331,-0.0023879394866526127,2.3397891521453857,0.027240991592407227,-9.535774230957031
74990104000,0.002188032027333975,-3.0842144042253494e-05,-0.0014478472294285893,2.328433036804199,0.06288182735443115,-9.516700744628906
74997057000,-0.0010804468765854836,-0.0018644476076588035,0.0008961160201579332,2.3199589252471924,-0.026920437812805176,-9.50989055633545
75003967000,0.00023639027494937181,0.001270919106900692,-0.001984190894290805,2.3688018321990967,0.03702592849731445,-9.538329124450684
75010921000,-0.0008160603465512395,0.0002465452125761658,0.0038054329343140125,2.3505754470825195,-0.09419548511505127,-9.530293464660645
75024790000,-0.0008760234341025352,0.00047737336717545986,-0.0025978097692131996,2.3376340866088867,0.02618241310119629,-9.535605430603027
75031854000,-0.0009213267476297915,-0.00037501167389564216,0.003885583719238639,2.355691432952881,-0.11125969886779785,-9.530540466308594
75038688000,0.0021554974373430014,-3.4086406230926514e-05,-0.0015959622105583549,2.324981212615967,0.06861519813537598,-9.520191192626953
75045735000,-0.0003722546389326453,0.001279544667340815,0.0005724001675844193,2.3738341331481934,-0.025233983993530273,-9.559907913208008
75052566000,0.0007250034250319004,-0.000867474649567157,-0.002077873097732663,2.3006591796875,0.031154513359069824,-9.504034996032715
75066484000,-6.510503590106964e-05,-0.0013044903753325343,0.001421554945409298,2.351336717605591,-0.021311283111572266,-9.507926940917969
75073410000,0.00041470350697636604,0.0018063613679260015,-0.0018439308041706681,2.366584300994873,0.048271775245666504,-9.540349960327148
75080392000,-0.0006585114169865847,0.0027561255265027285,0.00011511467164382339,2.366933822631836,-0.029334545135498047,-9.555310249328613
75087271000,0.0008368800627067685,0.0014928227756172419,0.0006785549921914935,2.3340024948120117,-0.022587060928344727,-9.529829978942871
75101283000,-0.0009629890555515885,-0.0009821667335927486,0.003811161033809185,2.3581480979919434,-0.09317421913146973,-9.537532806396484
75108138000,0.001914479536935687,-0.0004917707992717624,-0.0015643987571820617,2.3265795707702637,0.0679013729095459,-9.520174980163574
75115083000,-0.0005974348750896752,-0.0003105102223344147,-0.0024697459302842617,2.3403100967407227,0.023817062377929688,-9.535797119140625
75122019000,-0.0009567401721142232,-0.0009223686065524817,0.0037262956611812115,2.3550658226013184,-0.10452628135681152,-9.52567195892334
75128990000,0.002205789554864168,-0.0002361054066568613,-0.0014459234662353992,2.329102039337158,0.06245839595794678,-9.513382911682129
75142830000,0.00021338369697332382,0.0012937227729707956,-0.001982426969334483,2.370119094848633,0.036907076835632324,-9.535723686218262
75149827000,-0.0008301231428049505,0.00026435768813826144,0.0038107011932879686,2.3506972789764404,-0.09429490566253662,-9.530003547668457
75156724000,0.0019013992277905345,0.0006176393944770098,-0.0016443835338577628,2.325551986694336,0.0700913667678833,-9.521899223327637
75163862000,-0.000816441373899579,0.0006721440004184842,-0.002684137085452676,2.3381505012512207,0.027283549308776855,-9.536955833435059
75170611000,-0.001071066246367991,-0.00031407957430928946,0.0037432226818054914,2.353750705718994,-0.10907983779907227,-9.530074119567871
75184562000,-0.0004641677951440215,0.00010327843483537436,-0.0023951076436787844,2.339423418045044,0.02732670307159424,-9.537125587463379
75191452000,-0.0009492131066508591,-0.0007217194652184844,0.003736862912774086,2.3536410331726074,-0.10278868675231934,-9.529356002807617
75198426000,0.0021912422962486744,-0.00023307325318455696,-0.001444233930669725,2.3277697563171387,0.06274843215942383,-9.516748428344727
75205330000,-0.0007113883038982749,3.6972458474338055e-05,-0.002608874114230275,2.338719367980957,0.03058040142059326,-9.535505294799805
75212313000,-0.0011267015943303704,-0.0007157362997531891,0.0037002586759626865,2.3550119400024414,-0.1062319278717041,-9.526618003845215
75226174000,-0.0011182368034496903,-0.0019154143519699574,0.0008987780893221498,2.319432497024536,-0.026807785034179688,-9.509063720703125
75233146000,0.000229327823035419,0.0013339025899767876,-0.0019812004175037146,2.3695735931396484,0.03686404228210449,-9.537809371948242
75240053000,-0.0008377390331588686,0.0002819823275785893,0.0038111256435513496,2.350414514541626,-0.09415876865386963,-9.530158042907715
75247017000,0.0020669333171099424,0.0005245471838861704,-0.0014576719840988517,2.325927495956421,0.06564271450042725,-9.522811889648438
75253951000,-0.0008052466437220573,0.0005377314519137144,-0.0026177149266004562,2.3365986347198486,0.03030264377593994,-9.536060333251953
75267870000,0.002189153339713812,-4.919269122183323e-05,-0.0014627397758886218,2.3268392086029053,0.061081647872924805,-9.520537376403809
75274774000,-0.0007448295946232975,8.45600152388215e-05,-0.0025973988231271505,2.337657928466797,0.030236244201660156,-9.535772323608398
75281763000,-0.0011164270108565688,-0.0007089574937708676,0.00369345978833735,2.354750633239746,-0.1061551570892334,-9.529029846191406
75288666000,0.0021692353766411543,-0.0001181622501462698,-0.0014537172392010689,2.328782320022583,0.061347007751464844,-9.516608238220215
75302568000,-0.0009119607275351882,-0.0006518573500216007,0.003888468025252223,2.356092691421509,-0.1104964017868042,-9.52781867980957
75309528000,0.002137372037395835,-3.934523556381464e-05,-0.0015804986469447613,2.326637029647827,0.06854808330535889,-9.515788078308105
75316506000,-0.0010758585995063186,-0.0019725526217371225,0.0010521785588935018,2.3211894035339355,-0.032369017601013184,-9.509370803833008
75323442000,0.00011546490713953972,0.0013489649863913655,-0.0021195823792368174,2.3678505420684814,0.04288840293884277,-9.537827491760254
75330440000,-0.0009365256410092115,0.0002844494010787457,0.003771426621824503,2.351029396057129,-0.0960245132446289,-9.530141830444336
75344200000,-0.0004283209564164281,0.0018240335630252957,0.00039960251888260245,2.3716583251953125,-0.019780397415161133,-9.561029434204102
75351194000,0.0003660455986391753,-0.00043284997809678316,-0.002312674652785063,2.2996745109558105,0.033844828605651855,-9.5059175491333
75358099000,-0.0009617761243134737,-0.0009295138297602534,0.0037733495701104403,2.357698440551758,-0.09753978252410889,-9.53483772277832
75365129000,0.0023128697648644447,-0.00046268152073025703,-0.001271088607609272,2.328713893890381,0.0596616268157959,-9.518441200256348
75372042000,-0.0008242773474194109,-0.00013197946827858686,-0.002759648486971855,2.3367228507995605,0.03760719299316406,-9.535372734069824
75385935000,0.0021187004167586565,-9.553716517984867e-05,-0.0014671885874122381,2.329667568206787,0.060448408126831055,-9.513934135437012
75392857000,-0.0006765794823877513,0.00018944009207189083,-0.0026102166157215834,2.3387651443481445,0.029625535011291504,-9.534908294677734
75399836000,-0.00108275783713907,-0.0005642022588290274,0.00368874822743237,2.3550312519073486,-0.10610461235046387,-9.526702880859375
75406723000,0.002188046695664525,3.6228448152542114e-05,-0.0014530441258102655,2.3289012908935547,0.06133866310119629,-9.51559066772461
75420705000,0.00024381419643759727,0.0013574108015745878,-0.0018296120688319206,2.3698229789733887,0.03426039218902588,-9.538268089294434
75427631000,-0.0007970943697728217,0.0002838321670424193,0.003838948206976056,2.3497366905212402,-0.09229660034179688,-9.529877662658691
75434689000,0.00209346367046237,0.0005166255868971348,-0.0014522499404847622,2.3257994651794434,0.06609463691711426,-9.523353576660156
75441540000,-0.0007971538580022752,0.0005435207858681679,-0.002624095883220434,2.3367509841918945,0.03061068058013916,-9.536335945129395
75448518000,-0.001120961271226406,-0.0003403347509447485,0.0036783309187740088,2.3542065620422363,-0.10659587383270264,-9.530599594116211
75462406000,-0.0007452041609212756,7.704179733991623e-05,-0.0026031804736703634,2.337883949279785,0.03025996685028076,-9.535857200622559
75469340000,-0.0011187702184543014,-0.000711103668436408,0.003692676778882742,2.3548054695129395,-0.10622060298919678,-9.529010772705078
75476254000,0.0021672972943633795,-0.0001160590909421444,-0.0014522511046379805,2.328873634338379,0.061312317848205566,-9.516528129577637
75483268000,-0.0006866675103083253,0.00013560766819864511,-0.00259865028783679,2.338468074798584,0.029999852180480957,-9.53530502319336
75490192000,-0.0009160012705251575,-0.0006719112861901522,0.003886460792273283,2.355820894241333,-0.11034929752349854,-9.527542114257812
75504033000,-0.0007816309225745499,0.00018895254470407963,-0.0026199023704975843,2.3393030166625977,0.02959620952606201,-9.535204887390137
75510961000,-0.0011323324870318174,-0.0005621861782856286,0.0037020554300397635,2.35506010055542,-0.10679197311401367,-9.527335166931152
75517961000,0.0021986470092087984,4.192255437374115e-05,-0.001452665077522397,2.328855037689209,0.06120717525482178,-9.516068458557129
75524879000,-0.0011105546727776527,-0.0018266428960487247,0.0009003561572171748,2.3196845054626465,-0.026848554611206055,-9.509559631347656
75538765000,-0.0008789347484707832,0.0002676513104233891,0.003821611637249589,2.3502607345581055,-0.09408009052276611,-9.529991149902344
75545725000,0.00211868854239583,0.0005100161070004106,-0.0014553022338077426,2.3258256912231445,0.06526124477386475,-9.522931098937988
75552671000,-0.0007926205289550126,0.0005514816148206592,-0.0026134217623621225,2.3368639945983887,0.030494093894958496,-9.536389350891113
75559583000,-0.0011192053789272904,-0.00032751745311543345,0.0036810648161917925,2.354167938232422,-0.10645639896392822,-9.53054428100586
75573488000,-0.0004368791123852134,0.0013057859614491463,0.000418332900153473,2.371999740600586,-0.01949465274810791,-9.55980110168457
75580546000,0.0003909524530172348,-0.0008289595716632903,-0.002297919010743499,2.300966262817383,0.03332483768463135,-9.50451946258545
75587460000,-0.0013341812882572412,-0.002510556485503912,0.0008667920483276248,2.3245627880096436,-0.04884457588195801,-9.507852554321289
75594390000,0.0004080733051523566,0.0008364389650523663,-0.00192261824849993,2.370401382446289,0.03293466567993164,-9.533339500427246
75601392000,-0.0007062028744257987,-8.583143062423915e-05,0.0039420947432518005,2.351712942123413,-0.0951305627822876,-9.529585838317871
75615249000,-0.0004364647902548313,0.001773892785422504,0.00041853435686789453,2.3716464042663574,-0.01896798610687256,-9.559920310974121
75622187000,0.0003628294507507235,-0.0004921210347674787,-0.00230656866915524,2.2995166778564453,0.034012436866760254,-9.504409790039062
75629141000,-0.0008421348175033927,-0.0009636575123295188,0.0039845616556704044,2.3592865467071533,-0.1018068790435791,-9.534286499023438
75636084000,0.0022988724522292614,-0.00034619891084730625,-0.0014026297722011805,2.327404737472534,0.06641590595245361,-9.51744270324707
75650003000,4.1317485738545656e-05,0.0011809230782091618,-0.00217974791303277,2.3689370155334473,0.04127860069274902,-9.536645889282227
75656891000,-0.000764471129514277,0.00010099745122715831,0.003945188596844673,2.3523900508880615,-0.1014178991317749,-9.529679298400879
75663885000,0.002231287769973278,0.00041572400368750095,-0.0014179471181705594,2.3254919052124023,0.06681180000305176,-9.520232200622559
75670789000,-0.0007525885594077408,0.0005320983473211527,-0.0026184632442891598,2.3374061584472656,0.031612277030944824,-9.53659439086914
75677721000,-0.0011030775494873524,-0.0003407793410588056,0.0036781406961381435,2.3543455600738525,-0.10635554790496826,-9.53026294708252
75691654000,-0.0007442526984959841,0.0001188814640045166,-0.002603876404464245,2.3378348350524902,0.03014242649078369,-9.53562068939209
75698642000,-0.0009441676083952188,-0.0007245328743010759,0.0038807953242212534,2.3556711673736572,-0.11048972606658936,-9.528844833374023
75705534000,0.0021328008733689785,-9.534461423754692e-05,-0.0015934582334011793,2.3269143104553223,0.06850731372833252,-9.516518592834473
75712486000,-0.0006293158512562513,7.685198215767741e-05,-0.0024550536181777716,2.3402297496795654,0.024402737617492676,-9.53531265258789
75719426000,-0.0009619387565180659,-0.0006112232804298401,0.0037348205223679543,2.354597568511963,-0.10456371307373047,-9.52769947052002
75733342000,-0.0011509873438626528,-0.0019335172837600112,0.0009016883559525013,2.3195090293884277,-0.02646958827972412,-9.50911808013916
75740270000,0.00023110327310860157,0.0013180150417611003,-0.0019775223918259144,2.369594097137451,0.03666353225708008,-9.53787612915039
75747220000,-0.0008138134144246578,0.0002803376119118184,0.003815979929640889,2.3505125045776367,-0.09429991245269775,-9.530191421508789
75754166000,0.0018832101486623287,0.0005669440142810345,-0.0016448694514110684,2.325042724609375,0.07038140296936035,-9.522931098937988
75761058000,-0.0008851042948663235,0.0005608481587842107,-0.0026805740781128407,2.337466239929199,0.02747809886932373,-9.535909652709961
75774966000,0.0021479036659002304,-4.4525484554469585e-05,-0.0015994836576282978,2.3247711658477783,0.06817615032196045,-9.520378112792969
75781928000,-0.0006506401696242392,4.9049907829612494e-05,-0.0024521194864064455,2.3396177291870117,0.024455547332763672,-9.535992622375488
75788853000,-0.0010100791696459055,-0.0007183788111433387,0.0037432198878377676,2.3540215492248535,-0.10450506210327148,-9.528848648071289
75795799000,0.0021743366960436106,-0.00013258378021419048,-0.0014364022063091397,2.3286216259002686,0.06248342990875244,-9.516875267028809
75809750000,-0.0010720882564783096,-0.0006184233352541924,0.0037014393601566553,2.355046033859253,-0.10631537437438965,-9.527605056762695
75816675000,0.0021778272930532694,-3.731902688741684e-05,-0.001445436617359519,2.328670024871826,0.061528921127319336,-9.515704154968262
75823682000,-0.0007216360536403954,0.0001899413764476776,-0.0025833502877503633,2.33829927444458,0.03010237216949463,-9.53476333618164
75830751000,-0.0009357057278975844,-0.000597967766225338,0.0039008469320833683,2.3559885025024414,-0.11041927337646484,-9.527746200561523
75837567000,0.002161476295441389,2.2310297936201096e-05,-0.0015822738641873002,2.3266730308532715,0.06852483749389648,-9.516115188598633
75851409000,0.00011176674161106348,0.001366495038382709,-0.0021150808315724134,2.3674840927124023,0.043055057525634766,-9.538495063781738
75858360000,-0.0009632639703340828,0.00027876882813870907,0.003785095876082778,2.3509082794189453,-0.09605145454406738,-9.529949188232422
75865433000,0.002077194396406412,0.0005407092394307256,-0.0014517795061692595,2.3262012004852295,0.06432509422302246,-9.522651672363281
75879558000,0.00041091570165008307,-0.00047500216169282794,-0.001819807686842978,2.301994562149048,0.025455355644226074,-9.507108688354492
75886465000,-0.0011967446189373732,-0.0023496607318520546,0.0008564315503463149,2.320805311203003,-0.04154562950134277,-9.508094787597656
75893384000,0.00031290785409510136,0.0008485667640343308,-0.0019293538061901927,2.370030164718628,0.03428995609283447,-9.538515090942383
75900388000,-0.0007756297709420323,-0.00015807562158443034,0.003843211568892002,2.350581645965576,-0.09371936321258545,-9.529848098754883
75907220000,0.0021211651619523764,0.0002825219416990876,-0.001444465247914195,2.326917886734009,0.06601512432098389,-9.519866943359375
75921123000,0.00035395089071244,-0.000604878761805594,-0.0022984701208770275,2.300097942352295,0.033562660217285156,-9.504546165466309
75928113000,-0.0009666389669291675,-0.0009768608724698424,0.003784611588343978,2.3586220741271973,-0.09753656387329102,-9.534285545349121
75935152000,0.0021086283959448338,-0.0002949790796265006,-0.0014492266345769167,2.3290393352508545,0.06404495239257812,-9.516849517822266
75942021000,-0.0007454415899701416,-7.894623558968306e-05,-0.002605610527098179,2.3381853103637695,0.030157804489135742,-9.534353256225586
75955859000,0.00023027346469461918,-0.0009759264066815376,0.0015802985290065408,2.3506875038146973,-0.0254058837890625,-9.507493019104004
75962886000,0.000843097222968936,0.003153786528855562,0.0010449433466419578,2.398008346557617,0.004512786865234375,-9.565725326538086
75969726000,-0.0006316252984106541,-0.002018713392317295,-0.0018381368136033416,2.2461438179016113,0.045648932456970215,-9.463598251342773
75976655000,-0.0007096268236637115,0.0036856660153716803,0.0002884595305658877,2.4336352348327637,-0.034200191497802734,-9.589800834655762
75983618000,0.00016216933727264404,-0.0009315318893641233,0.0013711763313040137,2.281195640563965,-0.031175971031188965,-9.485355377197266
75997551000,0.0001376325380988419,-0.000626827240921557,0.0015484491595998406,2.341946601867676,-0.007000565528869629,-9.525729179382324
76004544000,0.00016665703151375055,0.0018180696060881019,-0.00207733828574419,2.3586411476135254,0.057183146476745605,-9.550421714782715
76014379000,-0.0003043256583623588,0.0017861634260043502,-0.0073086535558104515,2.3451857566833496,0.18242454528808594,-9.555742263793945
76020553000,-0.0029317005537450314,0.000413290923461318,0.0011492413468658924,2.3545303344726562,-0.12842702865600586,-9.529841423034668
76027486000,0.0009142401395365596,7.091392762959003e-05,0.00458180857822299,2.3557639122009277,-0.08399617671966553,-9.525076866149902
76041411000,-0.0007141396636143327,0.001822109567001462,0.00021308212308213115,2.3679230213165283,-0.009810209274291992,-9.562503814697266
76048366000,0.0002724363002926111,-0.0004937294870615005,-0.0021902816370129585,2.300138235092163,0.0272676944732666,-9.507346153259277
76055281000,-0.0011046648724004626,-0.0010581542737782001,0.0037009818479418755,2.353635787963867,-0.0937579870223999,-9.53406810760498
76062158000,0.00200840225443244,-0.0003336326917633414,-0.0014864193508401513,2.328850030899048,0.06302618980407715,-9.518990516662598
76069192000,-0.000718016002792865,-0.00011246319627389312,-0.002632445190101862,2.336859703063965,0.02929854393005371,-9.535598754882812
76083151000,-3.795529482886195e-05,-0.0009708158322609961,0.0013344843173399568,2.348964214324951,-0.023709774017333984,-9.507088661193848
76092974000,-0.0009833269286900759,0.004155693110078573,-0.00428428128361702,2.3798632621765137,0.07233726978302002,-9.581924438476562
76130966000,-0.000733559369109571,0.0001537487842142582,-0.0022994549944996834,2.3278427124023438,0.029598236083984375,-9.531364440917969
76130966000,-0.000733559369109571,0.0001537487842142582,-0.0022994549944996834,2.3278427124023438,0.029598236083984375,-9.531364440917969
76146745000,-0.00027050822973251343,0.0008582882583141327,0.0013302473817020655,2.368124008178711,-0.059391140937805176,-9.549788475036621
76162389000,-0.00023188244085758924,-0.0007626070291735232,-0.0010417961748316884,2.3432250022888184,0.009101510047912598,-9.5314302444458
76169204000,-0.0008439111988991499,-0.0021491425577551126,0.0019161374075338244,2.3247885704040527,-0.05153310298919678,-9.499887466430664
76187892000,-0.0019644033163785934,0.00014914304483681917,0.0025165423285216093,2.354524850845337,-0.11692821979522705,-9.527585983276367
76194835000,0.0020456197671592236,0.0018826646264642477,0.0013671496417373419,2.367819309234619,-0.007221102714538574,-9.542960166931152
76201913000,0.0008657524595037103,-0.00011660397285595536,-0.002060029422864318,2.2971386909484863,0.056821227073669434,-9.511613845825195
76208718000,-0.0011374056339263916,-0.0006285164272412658,0.0038021933287382126,2.3558478355407715,-0.09027743339538574,-9.536657333374023
76215647000,0.00203535589389503,-0.00013447727542370558,-0.001392050296999514,2.32621693611145,0.06288719177246094,-9.5213623046875
76229529000,-0.0008955348166637123,-0.0007803051266819239,0.0038805578369647264,2.3547017574310303,-0.11068284511566162,-9.529237747192383
76236483000,0.0021495346445590258,-0.0002358581405133009,-0.0015128497034311295,2.3248844146728516,0.06701934337615967,-9.51560115814209
76243416000,-0.0011920835822820663,-0.0020812798757106066,0.0008692815317772329,2.3192219734191895,-0.02725803852081299,-9.510340690612793
76250424000,0.000217510387301445,0.0012267503188923001,-0.0019902086351066828,2.368457794189453,0.036158204078674316,-9.536745071411133
76264267000,0.001923893578350544,0.0005220595048740506,-0.001648093806579709,2.3236923217773438,0.07004106044769287,-9.521907806396484
76271165000,-0.0009111255058087409,0.0005117158871144056,-0.002676759148016572,2.336153745651245,0.027741670608520508,-9.53638744354248
76278131000,-0.0011207845527678728,-0.00037545643863268197,0.0037574570160359144,2.353011131286621,-0.10941529273986816,-9.530536651611328
76285096000,0.002282967558130622,-7.455074228346348e-05,-0.0013611605390906334,2.3255996704101562,0.060167551040649414,-9.519750595092773
76292023000,-0.0004936498589813709,0.00011211598757654428,-0.002394074574112892,2.337822437286377,0.02759993076324463,-9.537254333496094
76305922000,0.0021638087928295135,-0.0001549494918435812,-0.0014448679285123944,2.3269455432891846,0.06282997131347656,-9.517595291137695
76312877000,-0.0007217006641440094,7.445132359862328e-05,-0.0026035981718450785,2.336829662322998,0.030383825302124023,-9.535706520080566
76319834000,-0.0010711485520005226,-0.0006549048703163862,0.0036962274461984634,2.3537256717681885,-0.1064295768737793,-9.527958869934082
76326701000,0.0021225607488304377,-4.6952394768595695e-05,-0.001447220565751195,2.327587127685547,0.06179535388946533,-9.516366958618164
76340607000,0.00023154355585575104,0.0012807920575141907,-0.001977024832740426,2.3678722381591797,0.03694450855255127,-9.53824234008789
76347600000,-0.0008219302399083972,0.00024384204880334437,0.0038150835316628218,2.3489789962768555,-0.09423232078552246,-9.530611991882324
76354521000,0.0021306939888745546,0.00045253976713865995,-0.0014543964061886072,2.323977470397949,0.06537985801696777,-9.522537231445312
76361433000,-0.0008047213195823133,0.0004999721422791481,-0.0026094841305166483,2.3354904651641846,0.030588746070861816,-9.536702156066895
76368415000,-0.001121341367252171,-0.00036026735324412584,0.0036838646046817303,2.352806329727173,-0.1064918041229248,-9.530914306640625
76382311000,-0.00043973070569336414,0.0012969092931598425,0.00042133789975196123,2.3704638481140137,-0.019473910331726074,-9.560134887695312
76389254000,0.0003839566488750279,-0.0008295734878629446,-0.0022932307329028845,2.299133777618408,0.0337367057800293,-9.504783630371094
76396152000,-0.0013437718152999878,-0.002590324729681015,0.0008583796443417668,2.322019577026367,-0.04867851734161377,-9.507225036621094
76403177000,0.00034186389530077577,0.0008861037786118686,-0.0019162371754646301,2.37048602104187,0.03309345245361328,-9.534621238708496
76410046000,-0.000699454452842474,-1.745918416418135e-05,0.0038599297404289246,2.3499808311462402,-0.09402549266815186,-9.530247688293457
76423945000,-0.00046610389836132526,0.0017136475071310997,0.0004159165546298027,2.3702237606048584,-0.019151806831359863,-9.560162544250488
76431141000,0.00034446196514181793,-0.0004451824352145195,-0.0022964973468333483,2.2990481853485107,0.03375983238220215,-9.505895614624023
76437827000,-0.0009807576425373554,-0.0009286179556511343,0.003783013205975294,2.3563356399536133,-0.09745526313781738,-9.534351348876953
76444798000,0.002320879604667425,-0.00039055454544723034,-0.0012616064632311463,2.327784538269043,0.05950593948364258,-9.517827987670898
76458661000,-1.3026874512434006e-06,0.0011588798370212317,-0.0021364744752645493,2.3687286376953125,0.037766098976135254,-9.536637306213379
76465636000,-0.0009432605584152043,0.00012542837066575885,0.0037695609498769045,2.350001573562622,-0.09681403636932373,-9.529806137084961
76472553000,0.0020981107372790575,0.0004970376612618566,-0.0014666689094156027,2.3253912925720215,0.06430816650390625,-9.520669937133789
76479490000,-0.0007304619066417217,0.0006285026902332902,-0.0026244118344038725,2.336275100708008,0.03006768226623535,-9.537251472473145
76486511000,-0.0010906362440437078,-0.0003070610691793263,0.0036824869457632303,2.3523945808410645,-0.1064755916595459,-9.530492782592773
76500365000,-0.0007559016230516136,9.070697706192732e-05,-0.002597424201667309,2.336207866668701,0.03027522563934326,-9.536052703857422
76507270000,-0.0009550268296152353,-0.0007522033411078155,0.003887040773406625,2.354245185852051,-0.11048305034637451,-9.52931022644043
76514305000,0.0021253370214253664,-0.00010883214417845011,-0.0015909022185951471,2.325505256652832,0.0685567855834961,-9.517027854919434
76521163000,-0.0006432922673411667,4.3555162847042084e-05,-0.0024570391979068518,2.338536262512207,0.024517416954040527,-9.535487174987793
76535091000,0.002189128426834941,-5.216873250901699e-05,-0.0014361628564074636,2.3270535469055176,0.06241452693939209,-9.516457557678223
76542004000,-0.00115305557847023,-0.0019504724768921733,0.0009007555199787021,2.3178064823150635,-0.026407241821289062,-9.509309768676758
76548986000,0.0002203474286943674,0.0013190150493755937,-0.0019819331355392933,2.3681788444519043,0.03677475452423096,-9.538329124450684
76555901000,-0.0008360915817320347,0.00027062371373176575,0.0038119119126349688,2.3489503860473633,-0.09423470497131348,-9.530489921569824
76562841000,0.0018972017569467425,0.0005628113867715001,-0.001639099675230682,2.323568344116211,0.07001757621765137,-9.523235321044922
76576710000,-0.0009295413619838655,-0.0003605479432735592,0.0038910740986466408,2.3539743423461914,-0.11108219623565674,-9.530980110168457
76583706000,0.002174836117774248,-4.021194763481617e-05,-0.0015969834057614207,2.3232502937316895,0.0685802698135376,-9.520806312561035
76590659000,-0.0005898893577978015,0.00010906835086643696,-0.002452754881232977,2.338616371154785,0.024337053298950195,-9.537175178527832
76597600000,-0.0009756797226145864,-0.0007002532947808504,0.0037359846755862236,2.3522565364837646,-0.10424685478210449,-9.529376983642578
76604535000,0.00222069607116282,-0.00021222326904535294,-0.0014404715038836002,2.3261783123016357,0.06235170364379883,-9.51700210571289
76618428000,-0.0010811662068590522,-0.0006397502147592604,0.003698635147884488,2.353898525238037,-0.10631656646728516,-9.527777671813965
76625329000,0.002168149221688509,-3.68261244148016e-05,-0.0014455956406891346,2.3273425102233887,0.06149590015411377,-9.515955924987793
76632334000,-0.000736718880943954,0.00018069508951157331,-0.0025866276118904352,2.3366780281066895,0.03018367290496826,-9.534987449645996
76639238000,-0.0008859573281370103,-0.0005373061867430806,0.003896627575159073,2.355107069015503,-0.11073899269104004,-9.528722763061523
76653173000,-0.00116316182538867,-0.0018507044296711683,0.0008808479178696871,2.319338321685791,-0.027215003967285156,-9.510577201843262
76660065000,0.00021982809994369745,0.0013106120750308037,-0.0019816947169601917,2.3674468994140625,0.036360740661621094,-9.538589477539062
76667047000,-0.0008119815029203892,0.00027079920982941985,0.0038190227933228016,2.3489246368408203,-0.09449303150177002,-9.530546188354492
76673974000,0.0018911591032519937,0.0005383148090913892,-0.0016255922382697463,2.3234143257141113,0.07007479667663574,-9.523448944091797
76681012000,-0.0005765887908637524,0.0017282352782785892,0.0004343502805568278,2.3701348304748535,-0.02363002300262451,-9.560012817382812
76694779000,-0.0007857102318666875,-0.0009813850047066808,0.00399330910295248,2.357285976409912,-0.10047686100006104,-9.53508472442627
76701756000,0.002287487033754587,-0.0004222206771373749,-0.00141181331127882,2.325347900390625,0.06712210178375244,-9.51861572265625
76708689000,-0.000741813681088388,-0.0001732493401505053,-0.002599300118163228,2.3369345664978027,0.03165853023529053,-9.535579681396484
76715732000,-0.0011232731631025672,-0.0007868908578529954,0.0036836895160377026,2.3544092178344727,-0.10596513748168945,-9.52644157409668
76722566000,0.002170527819544077,-8.386489935219288e-05,-0.0014614752726629376,2.3279099464416504,0.06126546859741211,-9.514498710632324
76736493000,-0.0009013668168336153,-0.0005198846338316798,0.003886014921590686,2.3554434776306152,-0.11061489582061768,-9.527743339538574
76743415000,0.00216468283906579,2.5946530513465405e-05,-0.0015071178786456585,2.324918746948242,0.06691098213195801,-9.515954971313477
76750395000,-0.0007891362765803933,0.0002836992498487234,-0.002619141712784767,2.3381118774414062,0.029873013496398926,-9.536019325256348
76757321000,-0.0010919716442003846,-0.00048056384548544884,0.0036881554406136274,2.3536767959594727,-0.10679495334625244,-9.528964042663574
