sim_time_ns,gyro_x,gyro_y,gyro_z,accel_x,accel_y,accel_z
290257907000,-0.0006613940931856632,-0.0003730317985173315,0.00013679156836587936,-3.025160312652588,0.015071272850036621,-9.329829216003418
290264926000,0.0008231652318499982,3.189902054145932e-05,-0.00018565804930403829,-3.0407097339630127,-0.004269957542419434,-9.342450141906738
290271762000,-0.00014352586003951728,-0.00014478486264124513,7.277676195371896e-05,-3.000123977661133,0.025573372840881348,-9.325376510620117
290285740000,0.0007486588438041508,0.00020692386897280812,-0.00019351652008481324,-3.040229082107544,-0.0029906034469604492,-9.34361457824707
290292568000,-0.00022080069174990058,2.0322579075582325e-05,7.092178566381335e-05,-2.9999771118164062,0.02563643455505371,-9.32505989074707
290299609000,-0.0006215603207238019,-0.0002112557995133102,0.00011369432468200102,-3.0242438316345215,0.015297412872314453,-9.331926345825195
290306458000,0.0007695913081988692,0.0002609709626995027,-0.00019331509247422218,-3.040562152862549,-0.003441929817199707,-9.342185020446777
290313442000,-0.0001972704631043598,5.506833258550614e-05,7.146356074372306e-05,-3.0000832080841064,0.025632143020629883,-9.324763298034668
290327299000,0.0008108538459055126,0.0002532736980356276,-0.00019045962835662067,-3.0405654907226562,-0.0033965110778808594,-9.342028617858887
290334320000,-0.00015142469783313572,2.9448579880408943e-05,7.105791883077472e-05,-3.0003433227539062,0.025487899780273438,-9.325037002563477
290341214000,-0.0005638418369926512,-0.0002217672299593687,0.00011457291839178652,-3.02437162399292,0.015404939651489258,-9.331727981567383
290348144000,0.0008041362161748111,0.0002525264862924814,-0.00019027518283110112,-3.040548801422119,-0.003264188766479492,-9.342303276062012
290355075000,-0.00015453911328222603,3.531778929755092e-05,7.163574628066272e-05,-3.0003600120544434,0.025443196296691895,-9.325080871582031
290368991000,0.0008064514258876443,0.00026188604533672333,-0.00019001023611053824,-3.040623664855957,-0.003366708755493164,-9.342290878295898
290375904000,-0.00015699517098255455,3.882168675772846e-05,7.15429923729971e-05,-3.000349998474121,0.025501728057861328,-9.32504653930664
290382921000,-0.0005666331853717566,-0.0002073305076919496,0.00011635791452135891,-3.0243170261383057,0.015398025512695312,-9.331677436828613
290397332000,-0.00015740221715532243,4.145379352848977e-05,7.297844422282651e-05,-3.0003058910369873,0.025529980659484863,-9.32500171661377
290397332000,-0.00015740221715532243,4.145379352848977e-05,7.297844422282651e-05,-3.0003058910369873,0.025529980659484863,-9.32500171661377
290418957000,0.0007639175746589899,0.0004924739478155971,-0.0002319744962733239,-3.037010431289673,0.00034487247467041016,-9.338403701782227
290439077000,-0.00014478394587058574,0.00031761883292347193,2.794119791360572e-05,-2.9965438842773438,0.027269721031188965,-9.322795867919922
290454145000,-0.0005603329045698047,-0.0003350325278006494,0.00011820405052276328,-3.0248870849609375,0.013300538063049316,-9.330987930297852
290462158000,0.000724283279851079,0.00022436585277318954,-0.0001985447306651622,-3.036923885345459,0.0002664327621459961,-9.339242935180664
290462158000,0.000724283279851079,0.00022436585277318954,-0.0001985447306651622,-3.036923885345459,0.0002664327621459961,-9.339242935180664
290476448000,-0.00016694999067112803,-0.000497280852869153,0.0001440572232240811,-3.0219311714172363,0.011082768440246582,-9.336191177368164
290483341000,0.0008546620374545455,0.0002346046967431903,-0.0001407674135407433,-3.0390753746032715,-9.679794311523438e-05,-9.343629837036133
290499752000,-0.0008389073191210628,-0.0015489822253584862,0.0003797957906499505,-3.022636890411377,0.011220693588256836,-9.340714454650879
290506699000,0.00010957717313431203,-0.0001942125236382708,-0.00018440166604705155,-3.0499043464660645,0.002064943313598633,-9.341165542602539
290513633000,-0.0010483749210834503,1.0747462511062622e-06,4.608993185684085e-05,-2.992706537246704,0.03120243549346924,-9.318187713623047
290527374000,-0.00013686995953321457,0.0002345192333450541,1.6401929315179586e-05,-3.0001883506774902,0.02675306797027588,-9.323419570922852
290534443000,-0.0002693871792871505,-0.0002142198063666001,9.585752559360117e-05,-3.0238523483276367,0.012236595153808594,-9.332353591918945
290541236000,0.0009740019449964166,0.00036215392174199224,-0.00019790310761891305,-3.0403857231140137,-0.0024400949478149414,-9.343231201171875
290548285000,9.97577008092776e-05,0.00015422928845509887,4.910413917968981e-05,-2.999892234802246,0.02458822727203369,-9.326075553894043
290555188000,-0.0004411489353515208,-1.9272236386314034e-05,0.00010760543227661401,-3.024364948272705,0.016449451446533203,-9.331862449645996
290569102000,-0.00017782078066375107,0.0003758245147764683,1.7256104911211878e-05,-3.0006532669067383,0.02849602699279785,-9.322624206542969
290576034000,-0.000310099043417722,-0.00012126556248404086,0.00010040709457825869,-3.0240540504455566,0.012189984321594238,-9.332045555114746
290582963000,-0.0005666043143719435,-0.0006753484485670924,0.00017292288248427212,-3.024104595184326,0.013104438781738281,-9.333467483520508
290589930000,0.0005269520916044712,0.0002822077367454767,-0.0002326589310541749,-3.0407767295837402,0.0007877349853515625,-9.341047286987305
290603879000,-0.0008258448797278106,-5.731411511078477e-05,7.000968616921455e-05,-3.0247387886047363,0.020047903060913086,-9.328614234924316
290610782000,0.0008132014190778136,0.00015109078958630562,-0.00019593213801272213,-3.040153741836548,-0.00636601448059082,-9.34216022491455
290617691000,-1.954338040377479e-05,-1.586222970217932e-05,4.9080888857133687e-05,-2.9994924068450928,0.024335384368896484,-9.326187133789062
290624609000,-0.0005269124521873891,-0.00015861712745390832,0.00010514476161915809,-3.0241246223449707,0.01622462272644043,-9.33189868927002
290631625000,0.0008493864443153143,0.00013116421177983284,-0.0001415617880411446,-3.0401437282562256,-0.004501938819885254,-9.344156265258789
290645399000,-0.0004972289316356182,-0.00016685586888343096,0.00011096691014245152,-3.024066925048828,0.013489603996276855,-9.331293106079102
290652460000,0.0008944028522819281,0.000103659403976053,-0.0001377692969981581,-3.040285587310791,-0.004602313041687012,-9.343857765197754
290659286000,-0.00018750988238025457,0.00027272722218185663,1.4131132047623396e-05,-3.0005574226379395,0.028395414352416992,-9.32278060913086
290666291000,-0.00033886570599861443,-0.00017841141379904002,9.617421892471611e-05,-3.023838996887207,0.012334465980529785,-9.332584381103516
290680116000,-0.0001649854821152985,0.0003569456748664379,1.4171739167068154e-05,-3.000659942626953,0.028414249420166016,-9.322717666625977
290687139000,-0.00032911679591052234,-0.00010690648923628032,9.987976955017075e-05,-3.0237112045288086,0.012547612190246582,-9.332094192504883
290693996000,-0.0005756887840107083,-0.0006670042057521641,0.0001727583585307002,-3.0241198539733887,0.01299440860748291,-9.333489418029785
290701010000,0.0005453622434288263,8.963368600234389e-05,-0.0001766802161000669,-3.040658473968506,-0.0005152225494384766,-9.342615127563477
290714904000,-0.0005884694401174784,-0.0003370110352989286,0.00011236839054618031,-3.0237183570861816,0.013335585594177246,-9.331722259521484
290721798000,0.0008091360796242952,-1.6165722627192736e-05,-0.00013886106899008155,-3.03998064994812,-0.004638791084289551,-9.344326972961426
290728731000,-0.0002520538691896945,0.0001857412571553141,1.1668074876070023e-05,-3.0003581047058105,0.028255224227905273,-9.32289981842041
290735708000,-0.0005366925615817308,-0.00023599888663738966,0.0001098209831980057,-3.023888111114502,0.013547182083129883,-9.331960678100586
290742688000,0.0008488192106597126,0.00025270029436796904,-0.00019877607701346278,-3.040510654449463,-0.003652215003967285,-9.34306526184082
290749633000,-0.00013942109944764525,6.395667151082307e-05,6.561689224326983e-05,-2.9998693466186523,0.025722861289978027,-9.325057029724121
290763431000,0.0008269629906862974,0.0002999227726832032,-0.00019545851682778448,-3.04045033454895,-0.003484487533569336,-9.342387199401855
290770425000,-3.3913591323653236e-05,0.00010119035141542554,5.42186971870251e-05,-2.9995532035827637,0.02461230754852295,-9.325705528259277
290777326000,-0.0005304064834490418,-8.492288179695606e-05,0.00011052506306441501,-3.0244181156158447,0.016118645668029785,-9.331499099731445
290784394000,0.0008712030248716474,0.00015563564375042915,-0.00013542007945943624,-3.040371894836426,-0.004657745361328125,-9.343398094177246
290798209000,-0.0003579645126592368,-0.00016148363647516817,0.00010234890942228958,-3.0237364768981934,0.012457132339477539,-9.331823348999023
290805154000,0.000933712930418551,0.0001757625723257661,-0.00013403233606368303,-3.040358543395996,-0.003827691078186035,-9.344043731689453
290812058000,-0.000158536116941832,0.0003305526333861053,1.7232778191100806e-05,-3.0007355213165283,0.028461098670959473,-9.322712898254395
290819032000,-0.00032244136673398316,-0.00014031182217877358,0.00010113537427969277,-3.0238685607910156,0.012450695037841797,-9.33242416381836
290825956000,-0.0005883664707653224,-0.0006858363631181419,0.00017389310232829303,-3.024066925048828,0.013140439987182617,-9.333747863769531
290839843000,-0.0003661902737803757,5.4286152590066195e-05,1.7511105397716165e-05,-2.9998533725738525,0.025889992713928223,-9.323997497558594
290846768000,-0.0006100412574596703,-0.0003550456603989005,0.00011212351091671735,-3.023841142654419,0.013264894485473633,-9.331762313842773
290853774000,0.0007744242320768535,0.00016688444884493947,-0.00019659158715512604,-3.0401759147644043,-0.003487229347229004,-9.342809677124023
290867660000,-0.0005998910055495799,-0.00023490330204367638,0.00011100266419816762,-3.0241551399230957,0.015377640724182129,-9.332002639770508
290874565000,0.0007835549185983837,0.0002549909404478967,-0.0001956083142431453,-3.040372371673584,-0.0034950971603393555,-9.342513084411621
290881541000,-0.0001832116104196757,5.056000372860581e-05,6.940778985153884e-05,-2.9999232292175293,0.02551448345184326,-9.32497501373291
290888502000,-0.0005787741974927485,-0.0002045792352873832,0.00011260167229920626,-3.0243752002716064,0.015274405479431152,-9.331563949584961
290895381000,0.0008030828321352601,0.0002621227176859975,-0.00019230417092330754,-3.0404069423675537,-0.0034526586532592773,-9.342216491699219
290909282000,-0.0005719861364923418,-0.00021133929840289056,0.00011421662929933518,-3.0243782997131348,0.015396595001220703,-9.331640243530273
290916304000,0.0008066262817010283,0.0002613477408885956,-0.00019177651847712696,-3.040462017059326,-0.0034421682357788086,-9.342318534851074
290923201000,-4.135538256377913e-05,4.5597695134347305e-05,5.453325138660148e-05,-2.999783515930176,0.02441573143005371,-9.325921058654785
290930095000,-0.0005603677127510309,-0.0001305022742599249,0.00011197275307495147,-3.0243070125579834,0.01631450653076172,-9.331657409667969
290944041000,-0.00017093602218665183,9.738597145769745e-05,7.404787902487442e-05,-3.00004243850708,0.025678038597106934,-9.324743270874023
290951038000,-0.0005590645014308393,-0.00018893444212153554,0.00011803540110122412,-3.0245256423950195,0.015229105949401855,-9.331188201904297
290957978000,0.0008429726585745811,0.0002553514204919338,-0.00018956518033519387,-3.040708541870117,-0.0037183761596679688,-9.342321395874023
290965045000,-2.8746882890118286e-05,6.50147267151624e-05,5.954579683020711e-05,-2.9995205402374268,0.024758100509643555,-9.325590133666992
290971844000,-0.0005405088886618614,-0.00011413017637096345,0.00011706160148605704,-3.024310827255249,0.016246914863586426,-9.331636428833008
290985699000,-1.270686334464699e-05,0.00011062982957810163,5.922212585574016e-05,-2.9998579025268555,0.02443408966064453,-9.325784683227539
290992625000,-0.0004049224662594497,-6.455552647821605e-05,0.0001027235557558015,-3.023900032043457,0.015268921852111816,-9.332146644592285
290999688000,-0.0007579336524941027,-0.0006709021981805563,0.00019341401639394462,-3.024592399597168,0.013958454132080078,-9.332171440124512
291006522000,0.0005925524164922535,-1.4938355889171362e-05,-0.0001859740004874766,-3.0404727458953857,-0.0024089813232421875,-9.342904090881348
291013431000,-0.00035198964178562164,-0.00017654313705861568,7.491121505154297e-05,-2.9996542930603027,0.02541792392730713,-9.325068473815918
291027333000,-0.00016262650024145842,0.0005356703186407685,1.5034762327559292e-05,-3.000758647918701,0.027492284774780273,-9.322515487670898
291034379000,-0.0002852408215403557,-2.1287502022460103e-05,0.00010291193029843271,-3.0243101119995117,0.012346267700195312,-9.330673217773438
291041239000,-0.0006415018578991294,-0.0004601667751558125,0.00013454699364956468,-3.025254726409912,0.015033364295959473,-9.3304443359375
291048214000,0.0007162422407418489,-0.00023281387984752655,-0.0001168546878034249,-3.0407657623291016,-0.004324436187744141,-9.343908309936523
291055189000,-0.00027859365218319,-7.608751184307039e-05,1.792424518498592e-05,-3.0004076957702637,0.02767181396484375,-9.323738098144531
291069056000,0.0007165003917180002,0.00015782832633703947,-0.00019735850219149143,-3.0400712490081787,-0.0030366182327270508,-9.343928337097168
291075968000,-0.0002492637431714684,-2.0211009541526437e-05,6.526491779368371e-05,-2.9999260902404785,0.025578975677490234,-9.32519245147705
291082973000,-0.0006602057255804539,-0.00024593633133918047,0.00010923613444902003,-3.024265766143799,0.01541900634765625,-9.332070350646973
291089954000,0.0007282444857992232,0.000234470353461802,-0.00019642178085632622,-3.040444850921631,-0.0034373998641967773,-9.34225845336914
291103808000,-0.0006191467400640249,-0.00024438253603875637,0.00011029158486053348,-3.0245370864868164,0.015266895294189453,-9.331226348876953
291110720000,0.000653859693557024,0.00020675762789323926,-0.00017939231474883854,-3.0409469604492188,-0.0024417638778686523,-9.341245651245117
291117666000,-0.00022140450892038643,-7.265995373018086e-05,6.99733427609317e-05,-3.0002379417419434,0.024683356285095215,-9.325511932373047
291124605000,-0.0006231787847355008,-0.00030391692416742444,0.00011308336979709566,-3.0242912769317627,0.01544046401977539,-9.331592559814453
291131616000,0.0007625408470630646,0.00018398388056084514,-0.00019523581431712955,-3.040527820587158,-0.0034456253051757812,-9.342472076416016
291145592000,-0.0006229248247109354,-0.00026301434263587,0.00011258618178544566,-3.0243589878082275,0.015494823455810547,-9.331787109375
291152547000,0.0006336272927001119,0.00019583283574320376,-0.00017832263256423175,-3.0409603118896484,-0.0023609399795532227,-9.341638565063477
291159398000,-0.0002443485427647829,-8.468140731565654e-05,7.123032992240041e-05,-3.0002455711364746,0.024697542190551758,-9.325543403625488
291166509000,-0.0006462606252171099,-0.0003172620781697333,0.0001146494469139725,-3.024296522140503,0.015411376953125,-9.331706047058105
291180131000,-0.0002597789862193167,-0.00011990187340416014,7.173073390731588e-05,-3.000185489654541,0.024693965911865234,-9.325570106506348
291187162000,0.0009771522600203753,0.000569491065107286,-0.000209677338716574,-3.0401692390441895,-0.002219557762145996,-9.343024253845215
291194054000,-0.00010322895832359791,0.0005544160958379507,1.4026882126927376e-05,-3.0008697509765625,0.027591705322265625,-9.322466850280762
291201070000,-0.0003508802910801023,-3.013905370607972e-05,0.00011633586836978793,-3.02492094039917,0.013253569602966309,-9.330344200134277
291207931000,-0.000635455478914082,-0.0005443817935883999,0.0001358591252937913,-3.0252633094787598,0.014366745948791504,-9.33077335357666
291221989000,-0.00017333633149974048,-0.00018226327665615827,6.157752068247646e-05,-3.0000298023223877,0.025730133056640625,-9.325554847717285
291228894000,-0.0005899250973016024,-0.00040069097303785384,0.00010956355254165828,-3.024031162261963,0.015210628509521484,-9.333215713500977
291235878000,0.0007017134921625257,0.00018465035827830434,-0.00019803160103037953,-3.0400209426879883,-0.0028308629989624023,-9.344316482543945
291242782000,-0.00027064356254413724,1.0492803994566202e-06,6.488498911494389e-05,-2.9999475479125977,0.025604248046875,-9.325227737426758
291256687000,0.0006100250175222754,0.0002271268458571285,-0.00018232256115879864,-3.040947914123535,-0.0025866031646728516,-9.341348648071289
291263591000,-0.0002727601968217641,-3.808755718637258e-05,6.980937178013846e-05,-2.9999446868896484,0.024850845336914062,-9.325216293334961
291270672000,-0.0006307411240413785,-0.0002966439933516085,0.0001102156238630414,-3.0244903564453125,0.015090346336364746,-9.331107139587402
291277572000,0.0006510431412607431,0.00017357408069074154,-0.00018046627519652247,-3.0408267974853516,-0.0025043487548828125,-9.341301918029785
291291485000,0.0010221954435110092,0.0006025301991030574,-0.00021334642951842397,-3.040083646774292,-0.0021790266036987305,-9.34295654296875
291298525000,-5.655200220644474e-05,0.0005912172491662204,1.021094067255035e-05,-3.0008630752563477,0.027603864669799805,-9.32251262664795
291305364000,-0.000189923113794066,2.6097215595655143e-05,9.820906416280195e-05,-3.024463176727295,0.012333512306213379,-9.331086158752441
291312287000,-0.0005585415055975318,-0.0006085709319449961,0.00018779007950797677,-3.0250790119171143,0.014049291610717773,-9.33232593536377
291319223000,0.0007439667824655771,6.153964204713702e-05,-0.00018819741671904922,-3.040565013885498,-0.0019806623458862305,-9.343267440795898
291333144000,-0.0006038378924131393,-0.00021802226547151804,0.00011163612361997366,-3.024217367172241,0.0162428617477417,-9.331971168518066
291340047000,0.0007586410501971841,0.0002813536557368934,-0.00019338892889209092,-3.0403780937194824,-0.003268718719482422,-9.34278392791748
291346935000,-0.00020857983327005059,7.16978101991117e-05,7.026013918220997e-05,-3.000108242034912,0.025597095489501953,-9.324951171875
291353960000,-0.000590649142395705,-0.0001892742293421179,0.00011484445712994784,-3.0244808197021484,0.015275716781616211,-9.331269264221191
291367889000,-4.465728488867171e-05,8.25541210360825e-05,5.4933279898250476e-05,-2.999856948852539,0.024669528007507324,-9.325539588928223
291374795000,-0.0005339967901818454,-0.00011578621342778206,0.00011354333400959149,-3.0243759155273438,0.016096949577331543,-9.331399917602539
291382245000,0.0008425316191278398,0.00032898830249905586,-0.00018887048645410687,-3.0406861305236816,-0.0032684803009033203,-9.34179973602295
291388766000,-6.480120646301657e-06,0.00010769773507490754,5.797154881292954e-05,-3.000073194503784,0.024544119834899902,-9.325688362121582
291402587000,0.0008769678534008563,0.00015098426956683397,-0.00013009252143092453,-3.040614604949951,-0.004472970962524414,-9.343307495117188
291409509000,-0.00020457901700865477,0.00030197043088264763,2.2289259504759684e-05,-3.000873327255249,0.028513789176940918,-9.322466850280762
291416550000,-0.00034090684494003654,-0.00017916776414494962,0.00010325777839170769,-3.024094581604004,0.01231372356414795,-9.332140922546387
291423461000,-0.0007368195801973343,-0.000534269493073225,0.00013498305634129792,-3.024669647216797,0.015391945838928223,-9.331319808959961
291430353000,0.0006319262320175767,-0.0002655009739100933,-0.00011799444473581389,-3.040523052215576,-0.004414916038513184,-9.344283103942871
291444181000,-0.0006473232060670853,-0.00043074353015981615,0.00011026547872461379,-3.023690938949585,0.013552665710449219,-9.33336353302002
291451169000,0.0007001314661465585,0.00014317978639155626,-0.00019899921608157456,-3.0400333404541016,-0.0031888484954833984,-9.34368896484375
291458149000,-0.0002573708479758352,-2.887388109229505e-05,6.324119749478996e-05,-2.9998598098754883,0.025530099868774414,-9.325177192687988
291465081000,0.0008685861248522997,0.0006526875076815486,-0.00020091288024559617,-3.0405149459838867,-0.0012731552124023438,-9.342326164245605
291478967000,-0.00033350137528032064,9.981280891224742e-05,9.744554699864239e-05,-3.024594306945801,0.014954566955566406,-9.330540657043457
291486141000,-0.0006701713427901268,-0.0003836613614112139,0.00013278040569275618,-3.0253183841705322,0.014981508255004883,-9.329504013061523
291492898000,0.0008070459589362144,2.7649221010506153e-05,-0.00018784916028380394,-3.040518283843994,-0.00412440299987793,-9.342093467712402
291499927000,-0.0001550749730085954,-0.00014916366490069777,7.223380089271814e-05,-3.000037670135498,0.02550208568572998,-9.325372695922852
291513668000,0.0007638667593710124,7.872586138546467e-07,-0.00013766149641014636,-3.0399351119995117,-0.004177451133728027,-9.345086097717285
291520932000,-0.00042725331149995327,0.00017922426923178136,2.855752973118797e-05,-3.000908374786377,0.02941262722015381,-9.322121620178223
291527635000,-0.0006022427696734667,-0.00033441194682382047,0.00011326534149702638,-3.0241479873657227,0.01265871524810791,-9.331846237182617
291534863000,0.0007709694327786565,0.0001799403689801693,-0.00019505704403854907,-3.0402040481567383,-0.0032387971878051758,-9.342752456665039
291541581000,-0.00018481089500710368,-3.7662539398297668e-06,6.478064460679889e-05,-3.000149726867676,0.02544713020324707,-9.325227737426758
291555448000,0.000777954701334238,0.00024357170332223177,-0.0001952910388354212,-3.0405025482177734,-0.0034025907516479492,-9.34248161315918
291562354000,-0.0001963930990314111,3.628863487392664e-05,6.82085010339506e-05,-3.000092029571533,0.025642752647399902,-9.324954986572266
291569376000,-0.0005920202238485217,-0.00021832145284861326,0.00011302474740659818,-3.024444818496704,0.015337586402893066,-9.331483840942383
291576248000,0.0007914905436336994,0.00024347536964341998,-0.00019334591343067586,-3.0405776500701904,-0.0034110546112060547,-9.342182159423828
291590397000,-0.0005691461265087128,-0.00017505543655715883,0.00010420459148008376,-3.0246331691741943,0.01537179946899414,-9.331164360046387
291597240000,0.0008442249381914735,0.00022072059800848365,-0.00019204655836801976,-3.0405783653259277,-0.003900766372680664,-9.342473030090332
291604249000,-0.0001504765241406858,2.5148445274680853e-05,7.155854837037623e-05,-3.000103712081909,0.02583158016204834,-9.324957847595215
291611217000,-0.0005793388118036091,-0.00022399061708711088,0.00011653902038233355,-3.024399757385254,0.01558220386505127,-9.331838607788086
291618158000,0.0008039068779908121,0.00023340567713603377,-0.00019249266188126057,-3.0408072471618652,-0.003554821014404297,-9.3427095413208
291632017000,-0.0005937397945672274,-0.00022448934032581747,0.00011620454461080953,-3.02449893951416,0.015393495559692383,-9.33169174194336
291639044000,0.0007814443670213223,0.00024695758474990726,-0.00018881993310060352,-3.0405006408691406,-0.0033364295959472656,-9.34223461151123
291645899000,-0.0001829156099120155,2.336970646865666e-05,7.284928142325953e-05,-3.00028657913208,0.025484442710876465,-9.325085639953613
291652995000,-0.0005944494623690844,-0.00023572740610688925,0.00011759395420085639,-3.0244359970092773,0.015465259552001953,-9.33158016204834
291666757000,-0.00017963397840503603,1.7425903934054077e-05,7.298483251361176e-05,-3.000269651412964,0.025498390197753906,-9.325082778930664
291673763000,-0.0005949142505414784,-0.00023628753842785954,0.00011763401562348008,-3.0244126319885254,0.01549685001373291,-9.331636428833008
291680600000,0.0007839120225980878,0.00023899786174297333,-0.00018859581905417144,-3.0405611991882324,-0.003384709358215332,-9.342301368713379
291687627000,-0.0001796233409550041,1.788778172340244e-05,7.29976745788008e-05,-3.0002729892730713,0.025480031967163086,-9.325092315673828
291701521000,0.0007837227312847972,0.00024034129455685616,-0.00018865799938794225,-3.0405640602111816,-0.003390192985534668,-9.342289924621582
291708455000,-6.165240483824164e-05,2.8375470719765872e-05,5.751157732447609e-05,-2.9998674392700195,0.024468660354614258,-9.325860023498535
291715412000,-0.0005762145156040788,-0.00014518748503178358,0.00011475615610834211,-3.0243968963623047,0.016344308853149414,-9.331604957580566
291722319000,0.0007955323671922088,0.00029811030253767967,-0.00018901127623394132,-3.0407111644744873,-0.0032835006713867188,-9.341963768005371
291729177000,-0.0001828532840590924,7.587450090795755e-05,7.542315870523453e-05,-3.000298500061035,0.025699138641357422,-9.324732780456543
291743145000,0.0008247739169746637,0.00022669200552627444,-0.0001884103548945859,-3.040982723236084,-0.003675222396850586,-9.342330932617188
291750202000,-0.00016620777023490518,2.3650660295970738e-05,7.644793367944658e-05,-3.0002832412719727,0.02575993537902832,-9.324861526489258
291757148000,-0.0005682638147845864,-0.0002279349137097597,0.00011646756320260465,-3.024523973464966,0.0152968168258667,-9.331852912902832
291764048000,0.0008140986901707947,0.00022612675093114376,-0.00019029561372008175,-3.040755271911621,-0.003489255905151367,-9.342705726623535
291777967000,-0.0005725490627810359,-0.00013375681010074914,0.00011561645078472793,-3.0243237018585205,0.016255497932434082,-9.331677436828613
291784961000,0.0008055719081312418,0.0003105002106167376,-0.0001886284735519439,-3.040740489959717,-0.003323197364807129,-9.34203052520752
291791881000,-6.123511411715299e-05,0.00010105734691023827,6.079582453821786e-05,-2.999846935272217,0.024791359901428223,-9.325433731079102
291798814000,-0.0005542390863411129,-0.00010950019350275397,0.0001193546486319974,-3.024475574493408,0.016152262687683105,-9.33116626739502
291805792000,0.0008332936558872461,0.00031788338674232364,-0.00018537905998528004,-3.040902614593506,-0.0033832788467407227,-9.341679573059082
291819668000,-0.0005361409857869148,-0.00010705055319704115,0.00012076702842023224,-3.024458885192871,0.0163724422454834,-9.331320762634277
291826574000,0.0008552729268558323,0.00031330547062680125,-0.00018570511019788682,-3.041069984436035,-0.003505110740661621,-9.342028617858887
291833603000,-1.6067890101112425e-05,0.00010409681999590248,6.315441714832559e-05,-2.9999427795410156,0.024828553199768066,-9.325488090515137
291840489000,-0.000411626766435802,-7.892856956459582e-05,0.0001054743115673773,-3.0240745544433594,0.015354037284851074,-9.33211612701416
291847446000,-0.0007668499019928277,-0.0006896847044117749,0.00019649899331852794,-3.0247178077697754,0.014019250869750977,-9.332194328308105
291861252000,-0.0003630244464147836,-0.00019343700842000544,7.804112101439387e-05,-2.9997448921203613,0.025481462478637695,-9.325043678283691
291868269000,0.0008832750027067959,0.0005180482985451818,-0.0002048028545686975,-3.040006160736084,-0.0022925138473510742,-9.343267440795898
291875099000,-0.0001855107257142663,0.0005117012187838554,1.8150865798816085e-05,-3.000758647918701,0.02752530574798584,-9.322501182556152
291882081000,-0.000411755230743438,-6.882712477818131e-05,0.00011973545770160854,-3.02487850189209,0.013102173805236816,-9.33018970489502
291895931000,0.0007706675678491592,-0.00010918849147856236,-0.00018825079314410686,-3.0403780937194824,-0.004094600677490234,-9.343547821044922
291902975000,-0.00020221236627548933,-0.0002557926345616579,7.038962212391198e-05,-2.999825954437256,0.02560567855834961,-9.325650215148926
291909811000,0.0009983601048588753,0.0004935018951073289,-0.0002114643284585327,-3.039757251739502,-0.002012968063354492,-9.344005584716797
291916935000,-9.35188727453351e-05,0.0005061473348177969,1.0846342775039375e-05,-3.000753879547119,0.027459383010864258,-9.323391914367676
291930649000,-0.0005395372281782329,-0.0005907136364839971,0.0001718880666885525,-3.024343490600586,0.013151764869689941,-9.333305358886719
291937659000,0.0005529563641175628,0.00014329329133033752,-0.00017421718803234398,-3.0407705307006836,-0.00013816356658935547,-9.34206771850586
291944602000,-0.0003374011430423707,9.794186917133629e-05,2.0171995856799185e-05,-3.0000457763671875,0.025975584983825684,-9.323807716369629
291951543000,-0.0005820141523145139,-0.0003435929538682103,0.000116727314889431,-3.0240161418914795,0.013349175453186035,-9.33133316040039
291958450000,0.0008099435362964869,0.00015030353097245097,-0.00019328892813064158,-3.0405290126800537,-0.003591179847717285,-9.342852592468262
291965433000,-4.408504537423141e-05,-1.4901783288223669e-05,5.41306690138299e-05,-2.999546766281128,0.024608373641967773,-9.325901985168457
291979270000,0.0008248750236816704,0.00011258141603320837,-0.00013741813017986715,-3.0403480529785156,-0.004517555236816406,-9.344109535217285
291986283000,-0.000256984872976318,0.0002727899991441518,1.6000463801901788e-05,-3.0006065368652344,0.02844834327697754,-9.322668075561523
291993183000,-0.0005277055315673351,-0.0002057710662484169,0.00011557097604963928,-3.024259090423584,0.013502717018127441,-9.33125114440918
292000230000,0.000857809092849493,0.0002538497210480273,-0.00019254614016972482,-3.0406627655029297,-0.0034693479537963867,-9.342476844787598
292014101000,-0.0005295068258419633,-0.00010508383275009692,0.00011466030264273286,-3.024289608001709,0.0163041353225708,-9.331695556640625
292021205000,0.0008605444454587996,0.00014096609083935618,-0.00013268645852804184,-3.040487289428711,-0.0045566558837890625,-9.343659400939941
292027948000,-0.00022342683223541826,0.0002979356504511088,1.967282878467813e-05,-3.000711441040039,0.0284653902053833,-9.322607040405273
292034975000,-0.00036191250546835363,-0.00018217260367237031,0.00010324231698177755,-3.0239830017089844,0.012322187423706055,-9.332080841064453
292041858000,-0.0006301362882368267,-0.0005251291440799832,0.00011817142512882128,-3.0243349075317383,0.014288783073425293,-9.332015991210938
292055730000,-0.00036477716639637947,-1.8843536963686347e-05,1.710047945380211e-05,-3.0003178119659424,0.02762138843536377,-9.323488235473633
292062687000,-0.000654921168461442,-0.00039539116551168263,0.0001135265629272908,-3.023714542388916,0.013606905937194824,-9.332566261291504
292069658000,0.0007110474398359656,0.00014435994671657681,-0.00019523425726220012,-3.0402021408081055,-0.0033386945724487305,-9.343195915222168
292076588000,-0.00025055944570340216,-3.7504578358493745e-05,6.752469926141202e-05,-2.9999241828918457,0.025525212287902832,-9.325153350830078
292090477000,0.0006108848610892892,0.00019134226022288203,-0.00017976714298129082,-3.040865659713745,-0.0024656057357788086,-9.341609001159668
292097414000,-0.00028116811881773174,-8.120544953271747e-05,7.144005212467164e-05,-3.000030755996704,0.02487969398498535,-9.32539176940918
292104410000,0.000977718853391707,0.0005864619743078947,-0.00020827185653615743,-3.0402326583862305,-0.002354145050048828,-9.342574119567871
292111328000,-0.00010325215407647192,0.0005625836784020066,1.4281329640652984e-05,-3.0009608268737793,0.02759993076324463,-9.322479248046875
292118333000,-0.0003434981044847518,-3.8281199522316456e-05,0.00011694262502714992,-3.0250120162963867,0.013202071189880371,-9.330164909362793
292132163000,0.000717514893040061,-0.00020396552281454206,-0.00011755677405744791,-3.0405290126800537,-0.003268122673034668,-9.344464302062988
292139093000,-0.00028171497979201376,-5.2624978707171977e-05,1.6366371710319072e-05,-3.0005345344543457,0.02766096591949463,-9.323827743530273
292146038000,-0.0006201220094226301,-0.0004037647449877113,0.00011125490709673613,-3.023772716522217,0.013842940330505371,-9.333683013916016
292152990000,0.0007025519153103232,0.0001621699775569141,-0.00019698729738593102,-3.040118455886841,-0.0030243396759033203,-9.343814849853516
292159942000,-0.00026586305466480553,-1.2925767805427313e-05,6.709364242851734e-05,-2.9998769760131836,0.025612235069274902,-9.325121879577637
292173822000,0.0007377124857157469,0.00022701313719153404,-0.000197335917619057,-3.040586471557617,-0.0035761594772338867,-9.342247009277344
292180758000,-0.00022975081810727715,2.76752543868497e-05,6.734410271747038e-05,-3.000000476837158,0.025620102882385254,-9.324830055236816
292187715000,-0.000615209573879838,-0.00023982615675777197,0.00011151350190630183,-3.0244505405426025,0.015307307243347168,-9.331180572509766
292194670000,0.0006635714089497924,0.00020968247554264963,-0.0001808726228773594,-3.0410637855529785,-0.0025124549865722656,-9.341302871704102
292201634000,-0.0002181668533012271,-7.48184829717502e-05,7.000294863246381e-05,-3.000192642211914,0.024720191955566406,-9.325557708740234
292215515000,0.0007577379001304507,0.00018476316472515464,-0.00019510515267029405,-3.040454387664795,-0.0033648014068603516,-9.3424654006958
292222453000,-0.00021416600793600082,-1.3175420463085175e-05,6.96361530572176e-05,-3.000001907348633,0.025636792182922363,-9.324936866760254
292229366000,-0.000617214129306376,-0.0002557569823693484,0.00011278328020125628,-3.024425983428955,0.015374541282653809,-9.331756591796875
292236405000,0.0006445233593694866,0.00020531873451545835,-0.00017826672410592437,-3.0409436225891113,-0.0024033784866333008,-9.341618537902832
292250237000,-0.0006426879554055631,-0.00031456819851882756,0.0001143422705354169,-3.0243682861328125,0.01542198657989502,-9.33170223236084
292257165000,0.0006225965335033834,0.00016077735926955938,-0.0001784634659998119,-3.04095458984375,-0.0024367570877075195,-9.341719627380371
292264047000,-0.0002542927977629006,-0.00011180677392985672,7.187624578364193e-05,-3.0001161098480225,0.02470529079437256,-9.325565338134766
292271031000,-0.0006612146971747279,-0.00033578829606994987,0.00011357721814420074,-3.0242929458618164,0.015439152717590332,-9.331878662109375
292277943000,0.0005988706834614277,0.000145171390613541,-0.00017830515571404248,-3.0408473014831543,-0.0023823976516723633,-9.341776847839355
292291895000,0.0008441415848210454,0.0005489715258590877,-0.0001955036714207381,-3.0405547618865967,-0.0012607574462890625,-9.342283248901367
292298800000,-1.0605610441416502e-05,0.0002673787821549922,5.508857066160999e-05,-3.0003678798675537,0.024449467658996582,-9.325453758239746
292305778000,-0.0005008038133382797,1.0304851457476616e-05,0.00011472985352156684,-3.024803638458252,0.01614975929260254,-9.330458641052246
292312767000,0.0008921278640627861,0.0003883030149154365,-0.00018706003902480006,-3.041123390197754,-0.003414630889892578,-9.341028213500977
292326590000,-0.0003744527348317206,-7.018851465545595e-05,0.00010554162145126611,-3.024148464202881,0.015404820442199707,-9.331790924072266
292333573000,-0.0007575364434160292,-0.0004912448348477483,0.00013977682101540267,-3.024972438812256,0.015274882316589355,-9.330602645874023
292340459000,0.0006010214565321803,-6.998371100053191e-05,-0.00017098762327805161,-3.0410075187683105,-0.0033082962036132812,-9.34229850769043
292347376000,-0.0002751431311480701,-0.0002905314031522721,7.59592221584171e-05,-2.9998536109924316,0.02473270893096924,-9.32589340209961
292354354000,0.0009469692595303059,0.0004577303188852966,-0.00020763833890669048,-3.0397000312805176,-0.0021300315856933594,-9.343727111816406
292368247000,-0.0002919996331911534,-4.192610504105687e-05,9.860321006271988e-05,-3.024202585220337,0.012502551078796387,-9.33215618133545
292375153000,-0.0006750079919584095,-0.000644082494545728,0.00018829916371032596,-3.024803638458252,0.01416778564453125,-9.332545280456543
292382134000,0.0006458095740526915,2.2227701265364885e-05,-0.000187291472684592,-3.040457010269165,-0.00214385986328125,-9.3430757522583
292389096000,-0.00030347632127813995,-0.00014105701120570302,7.266186003107578e-05,-2.9998490810394287,0.025461554527282715,-9.325146675109863
292396004000,-0.0007152523612603545,-0.0003417848201934248,0.00011500980326673016,-3.0240683555603027,0.015457391738891602,-9.332161903381348
292409881000,-0.00031738949473947287,-0.0001112335012294352,7.300888682948425e-05,-2.999866008758545,0.024799823760986328,-9.325339317321777
292416884000,0.0008386941626667976,0.0005575274699367583,-0.00019363482715561986,-3.040587902069092,-0.0014897584915161133,-9.341874122619629
292423791000,-5.406269337981939e-06,0.0002818151842802763,5.64947331440635e-05,-3.000333309173584,0.024394631385803223,-9.3253812789917
292430745000,-0.0003619883209466934,2.3560714907944202e-05,9.906258492264897e-05,-3.0244884490966797,0.015047669410705566,-9.331045150756836
292437690000,0.0009230256546288729,0.00047991875908337533,-0.0001883745426312089,-3.041041851043701,-0.0024640560150146484,-9.340973854064941
292451611000,-0.0004576098290272057,-3.378506517037749e-05,0.00012125352077418938,-3.0247879028320312,0.016312003135681152,-9.330706596374512
292458547000,-0.0006046628695912659,-0.0005487806047312915,0.0001244273444171995,-3.0249133110046387,0.013236284255981445,-9.331329345703125
292465439000,0.0006363686989061534,-0.0002041731495410204,-0.0001121470850193873,-3.040365219116211,-0.0032367706298828125,-9.343868255615234
292472432000,-0.0003327980521135032,-6.56125193927437e-05,2.045190194621682e-05,-3.000595808029175,0.02740466594696045,-9.32369327545166
292479322000,-0.000655500974971801,-0.0004130795132368803,0.00011636933049885556,-3.0236144065856934,0.013896465301513672,-9.332916259765625
292493230000,-0.0002895561046898365,-0.00012158715981058776,7.107904821168631e-05,-2.9997849464416504,0.02490544319152832,-9.325523376464844
292500267000,-0.000689404783770442,-0.00032538044615648687,0.00011217730934731662,-3.024181365966797,0.01536095142364502,-9.332122802734375
292507113000,0.000585838221013546,0.0001628758036531508,-0.00018032694060821086,-3.0407962799072266,-0.0024949312210083008,-9.341744422912598
292514053000,-0.0002915735822170973,-9.864321327768266e-05,7.024377555353567e-05,-2.9999709129333496,0.02479696273803711,-9.325355529785156
292527953000,-0.00010467949323356152,0.0005619582370854914,1.3190925528761e-05,-3.0008606910705566,0.027582883834838867,-9.322392463684082
292534984000,-0.0003428458876442164,-3.443437162786722e-05,0.00011540473497007042,-3.02498197555542,0.01318359375,-9.330150604248047
292541888000,-0.0006223864038474858,-0.0005502354470081627,0.00013409496750682592,-3.025341033935547,0.014305591583251953,-9.330763816833496
292548819000,0.0008135318639688194,-7.909972919151187e-05,-0.00019059207988902926,-3.0404014587402344,-0.0040130615234375,-9.343710899353027
292555824000,-0.0001668651821091771,-0.00022606312995776534,6.971415859879926e-05,-2.999804735183716,0.025663137435913086,-9.32564640045166
292569687000,0.0005817280616611242,0.00017045924323610961,-0.0001840599870774895,-3.040433883666992,-0.0019102096557617188,-9.343661308288574
292576565000,-0.0003099686873611063,-6.787563324905932e-05,6.764161662431434e-05,-2.9998183250427246,0.02488422393798828,-9.32563591003418
292583574000,-0.0006987330853007734,-0.00029193030786700547,0.00010930556163657457,-3.024260997772217,0.01523888111114502,-9.331963539123535
292590487000,0.0005867397994734347,0.0001862717908807099,-0.00018174572323914617,-3.0407867431640625,-0.002557516098022461,-9.341431617736816
292597404000,-0.00028409267542883754,-7.205826113931835e-05,6.752808985766023e-05,-3.0000178813934326,0.024724721908569336,-9.32534122467041
292611323000,-7.996446220204234e-05,0.0005842241225764155,1.164127024821937e-05,-3.0007882118225098,0.02758491039276123,-9.322372436523438
292618292000,-0.00019118493946734816,3.2794923754408956e-06,9.69419488683343e-05,-3.024627685546875,0.012158393859863281,-9.330809593200684
292625181000,-0.0005567987100221217,-0.0006347806775011122,0.00018656373140402138,-3.025078773498535,0.01401984691619873,-9.332268714904785
292632118000,0.0007400674512609839,3.984378417953849e-05,-0.00018953150720335543,-3.0405330657958984,-0.001941084861755371,-9.343318939208984
292646029000,-0.0006546277436427772,-0.0003152336284983903,0.00011358616029610857,-3.0241637229919434,0.01549828052520752,-9.332460403442383
292653030000,0.0007108785212039948,0.00019749620696529746,-0.00019272817007731646,-3.0402541160583496,-0.003298163414001465,-9.342948913574219
292659897000,-0.00024941880838014185,1.3548124115914106e-06,7.043448567856103e-05,-3.0000128746032715,0.02553999423980713,-9.325027465820312
292666894000,-0.0006365084555000067,-0.00024322397075593472,0.0001131261233240366,-3.0244202613830566,0.015291094779968262,-9.331547737121582
292673811000,0.0006426774198189378,0.00021292720339260995,-0.00017839464999269694,-3.0409531593322754,-0.0024977922439575195,-9.341371536254883
292687770000,-0.000621266954112798,-0.00029706995701417327,0.00011375758913345635,-3.024364948272705,0.015321731567382812,-9.331521987915039
292694633000,0.0007652910426259041,0.00018843571888282895,-0.00019360010628588498,-3.040469169616699,-0.0034295320510864258,-9.342342376708984
292701596000,-0.0002055774675682187,-1.2054020771756768e-05,6.950432725716382e-05,-3.000066041946411,0.02563023567199707,-9.324917793273926
292708523000,-0.0006157198222354054,-0.00026082133990712464,0.00011403868847992271,-3.0242297649383545,0.015366196632385254,-9.331753730773926
292715448000,0.0006427644984796643,0.00019595163757912815,-0.00017680253949947655,-3.0409793853759766,-0.0024089813232421875,-9.341634750366211
292729337000,0.0008874370250850916,0.0005854575429111719,-0.00019292568322271109,-3.0405187606811523,-0.0012987852096557617,-9.342206001281738
292736356000,2.5434361305087805e-05,0.00030350213637575507,5.753259756602347e-05,-3.0002963542938232,0.024506688117980957,-9.32542610168457
292743236000,-0.0003446651389822364,4.590066964738071e-05,0.0001022566357278265,-3.024501085281372,0.01512908935546875,-9.331221580505371
292750222000,-0.0007115910993888974,-0.0004145897983107716,0.0001386553340125829,-3.0250191688537598,0.015154123306274414,-9.32994556427002
292757134000,0.000655271636787802,-2.1022220607846975e-05,-0.00017003846005536616,-3.041134834289551,-0.0033015012741088867,-9.341757774353027
292764053000,-0.00023072358453646302,-0.0002536462270654738,7.724306487943977e-05,-2.9999678134918213,0.024839043617248535,-9.325787544250488
292777958000,0.000570159696508199,0.00011150271166115999,-0.0001783414336387068,-3.040503978729248,-0.0021126270294189453,-9.342971801757812
292784989000,-0.00029905964038334787,-0.00014093436766415834,6.974400457693264e-05,-3.0000176429748535,0.02461707592010498,-9.325817108154297
292791903000,0.0009370011393912137,0.00057788664707914,-0.00021251951693557203,-3.039888620376587,-0.0022628307342529297,-9.343421936035156
292798794000,-0.00013584806583821774,0.000569141935557127,1.2011521903332323e-05,-3.000606060028076,0.027515888214111328,-9.322515487670898
292812699000,-0.0006315292557701468,-0.000532007310539484,0.0001338134316029027,-3.025238513946533,0.014094233512878418,-9.330470085144043
292819657000,0.0008231436368077993,-6.675662007182837e-05,-0.0001913402957143262,-3.040433645248413,-0.00408327579498291,-9.343425750732422
292826613000,-0.00015210596029646695,-0.00021839582768734545,6.754519563401118e-05,-2.999878406524658,0.025652527809143066,-9.325672149658203
292833928000,-0.0005823948886245489,-0.000390570581657812,0.00010703565931180492,-3.024043560028076,0.015427470207214355,-9.333115577697754
292847390000,-0.000489485333673656,0.00011364507372491062,2.6125599106308073e-05,-3.000797748565674,0.028599858283996582,-9.322700500488281
292854428000,-0.0006486264173872769,-0.00038081477396190166,0.00011076152441091835,-3.023771286010742,0.012497901916503906,-9.331930160522461
292861367000,0.0007404346251860261,0.00014974473742768168,-0.00019864820933435112,-3.040227174758911,-0.003458857536315918,-9.342805862426758
292868303000,-0.00021838652901351452,-2.8594658942893147e-05,6.365125591401011e-05,-2.999901294708252,0.025537967681884766,-9.325094223022461
292875180000,0.0010231852065771818,0.0006580758490599692,-0.0002157866838388145,-3.039997100830078,-0.002271294593811035,-9.342988014221191
292889116000,-0.00029870582511648536,3.8430531276389956e-05,0.00011215942504350096,-3.024940252304077,0.013241887092590332,-9.329998970031738
292896024000,-0.00045182296889834106,-0.00048111280193552375,0.00011557801917660981,-3.024906873703003,0.013245224952697754,-9.331424713134766
292903008000,0.0007801969768479466,-0.00014001515228301287,-0.00012169890396762639,-3.0405783653259277,-0.0032387971878051758,-9.344310760498047
292909951000,-0.0002330965071450919,2.9755872674286366e-05,1.5318713849410415e-05,-3.000331163406372,0.02794051170349121,-9.32352352142334
292916939000,-0.0005470495671033859,-0.0003339657559990883,0.00010906155512202531,-3.02376651763916,0.013643741607666016,-9.333477020263672
292930743000,-0.000262774177826941,0.00023792768479324877,1.0187635780312121e-05,-3.0004093647003174,0.028432250022888184,-9.322907447814941
292937722000,-0.0005304082878865302,-0.0001896193716675043,0.00010729938367148861,-3.0239930152893066,0.013432979583740234,-9.331930160522461
292944629000,0.00084641482681036,0.0003047696081921458,-0.00019856826111208647,-3.0404629707336426,-0.003291606903076172,-9.342470169067383
292951741000,-5.95901656197384e-06,0.00012521015014499426,5.070006591267884e-05,-2.999678611755371,0.024679064750671387,-9.325690269470215
292965453000,0.0009099120507016778,0.0001894844463095069,-0.00013953176676295698,-3.0406482219696045,-0.004641532897949219,-9.343348503112793
292972453000,-0.00016707625763956457,0.0003519030287861824,1.4051809557713568e-05,-3.0007686614990234,0.028489112854003906,-9.322549819946289
292979352000,-0.0003092357947025448,-0.00011201399320270866,9.793372009880841e-05,-3.02386212348938,0.012502193450927734,-9.331771850585938
292986360000,-0.0005420351517386734,-0.0006753604393452406,0.00017091952031478286,-3.0242114067077637,0.012937784194946289,-9.333518981933594
292993246000,0.0005681007751263678,9.900098666548729e-05,-0.0001790381211321801,-3.0406546592712402,-0.0003082752227783203,-9.342683792114258
293007195000,-0.0005653034313581884,-0.00031291242339648306,0.00010847428347915411,-3.0237655639648438,0.013478875160217285,-9.331826210021973
293014079000,0.0008350696298293769,1.4237768482416868e-05,-0.00014387309784069657,-3.0401172637939453,-0.0045920610427856445,-9.344392776489258
293021059000,-0.00023193458036985248,0.00021354499040171504,7.780094165354967e-06,-3.000382900238037,0.028411507606506348,-9.322822570800781
293027972000,-0.0005082605639472604,-0.00020642406889237463,0.00010637554805725813,-3.0240111351013184,0.013543248176574707,-9.33194351196289
293041872000,-0.00019535812316462398,0.00027939683059230447,8.198308933060616e-06,-3.000638723373413,0.028446078300476074,-9.32278060913086
293048816000,-0.0004790911334566772,-0.00016734996461309493,0.00010866510274354368,-3.024000644683838,0.013602733612060547,-9.33166217803955
293055838000,0.0009024936007335782,0.0003114480059593916,-0.00019807839998975396,-3.040717363357544,-0.0034416913986206055,-9.342726707458496
293062708000,3.364581789355725e-05,0.00012718079960905015,4.9955619033426046e-05,-2.999770164489746,0.024817347526550293,-9.325765609741211
293069740000,-0.0003635516040958464,-2.730102278292179e-05,9.207586845150217e-05,-3.0239529609680176,0.015354275703430176,-9.33248233795166
293083600000,-0.0001595488574821502,0.0004346482455730438,1.4092671335674822e-05,-3.001021385192871,0.02852010726928711,-9.322433471679688
293090508000,-0.00029289128724485636,-5.803551175631583e-05,0.00010012389975599945,-3.023996353149414,0.012480616569519043,-9.331320762634277
293097414000,-0.0005239304737187922,-0.0006299113156273961,0.0001741722080623731,-3.0242486000061035,0.013048648834228516,-9.332979202270508
293104409000,0.0006017809500917792,0.00012238690396770835,-0.00017529964679852128,-3.0407896041870117,-0.00040471553802490234,-9.34238052368164
293118346000,-0.000404685502871871,-0.0003005305479746312,9.51598776737228e-05,-3.023653745651245,0.012234807014465332,-9.332825660705566
293125203000,0.0008727493695914745,0.00011781323701143265,-0.00014295140863396227,-3.0399904251098633,-0.0035320520401000977,-9.344579696655273
293132143000,-0.00019876004080288112,0.00030531903030350804,9.522118489257991e-06,-3.000537395477295,0.028456687927246094,-9.32269287109375
293139168000,-0.0003532753325998783,-0.00012577534653246403,9.294084884459153e-05,-3.023738145828247,0.012565135955810547,-9.332368850708008
293146030000,0.0009360814583487809,0.00024064769968390465,-0.00014307029778137803,-3.0402846336364746,-0.0036280155181884766,-9.343982696533203
293159950000,-0.0002915149962063879,-6.717030191794038e-05,9.615752787794918e-05,-3.0239224433898926,0.012546777725219727,-9.331805229187012
293166912000,-0.0005303447251208127,-0.0006270668236538768,0.00017030096205417067,-3.0241949558258057,0.013069868087768555,-9.333288192749023
293173855000,0.0005921279080212116,0.00012953579425811768,-0.0001791032264009118,-3.0407705307006836,-0.0003985166549682617,-9.342517852783203
293180761000,-0.00028944810037501156,0.00011102436110377312,1.4157085388433188e-05,-2.9999237060546875,0.025991320610046387,-9.323939323425293
293194647000,0.000873201061040163,0.00012329028686508536,-0.00014334087609313428,-3.0400609970092773,-0.003682732582092285,-9.3443603515625
293201668000,-0.00019654500647448003,0.00030764384428039193,9.199648047797382e-06,-3.0005507469177246,0.02844679355621338,-9.32264232635498
293208535000,-0.0003465372137725353,-0.0001302597374888137,9.28519875742495e-05,-3.0237696170806885,0.012520790100097656,-9.332314491271973
293215502000,0.0009426349424757063,0.00023299222812056541,-0.00014291569823399186,-3.040304660797119,-0.0036505460739135742,-9.344046592712402
293229360000,-0.0002775523462332785,1.9760278519243002e-05,9.36335782171227e-05,-3.0239012241363525,0.013412714004516602,-9.331917762756348
293236399000,-0.0005199298611842096,-0.0005672393599525094,0.00016882646013982594,-3.0243303775787354,0.013103961944580078,-9.333024978637695
293243260000,0.0006052308017387986,0.00016705540474504232,-0.00017837686755228788,-3.040844440460205,-0.0004036426544189453,-9.342195510864258
293250267000,-0.0002740721101872623,0.0001397939631715417,1.405736111337319e-05,-3.0000524520874023,0.02595973014831543,-9.323875427246094
293257185000,-0.0004012019489891827,-0.00026351495762355626,9.464576578466222e-05,-3.0235414505004883,0.012416481971740723,-9.332292556762695
293271122000,-0.000175303197465837,0.0003158767649438232,9.428484190721065e-06,-3.0006275177001953,0.02841973304748535,-9.322668075561523
293277993000,-0.00033021398121491075,-0.00011628077481873333,9.447745833313093e-05,-3.023711681365967,0.012569546699523926,-9.332310676574707
293284969000,-0.0005777297192253172,-0.0006593905854970217,0.00016777505516074598,-3.0240676403045654,0.013139009475708008,-9.3335599899292
293291885000,0.000546977564226836,0.00010362011380493641,-0.0001818740856833756,-3.040738105773926,-0.0004303455352783203,-9.34261703491211
293298806000,-0.0003299732634332031,8.770055137574673e-05,1.123919355450198e-05,-2.9999008178710938,0.02596890926361084,-9.323893547058105
293312709000,0.0008305368828587234,7.959315553307533e-06,-0.00014531439228449017,-3.0401060581207275,-0.004590153694152832,-9.344287872314453
293319737000,-0.00023137203243095428,0.00020444332039915025,6.427959306165576e-06,-3.0004186630249023,0.028388619422912598,-9.322789192199707
293326586000,-0.0005117776454426348,-0.00021085358457639813,0.00010479980846866965,-3.0240237712860107,0.013612508773803711,-9.331951141357422
293333603000,0.0008737315656617284,9.329576278105378e-05,-0.00014466515858657658,-3.040238380432129,-0.004469752311706543,-9.344280242919922
293347425000,-0.00036324013490229845,-0.00015595699369441718,9.297825454268605e-05,-3.023681402206421,0.012655258178710938,-9.33238410949707
293354416000,0.0009187967516481876,0.00020947435405105352,-0.00014276303409133106,-3.040302276611328,-0.0035943984985351562,-9.344100952148438
293361313000,-0.0001672464277362451,0.00036286862450651824,1.1190561053808779e-05,-3.0007338523864746,0.028535127639770508,-9.322591781616211
293368402000,-0.00032432202715426683,-0.00010416388977319002,9.57030279096216e-05,-3.0239248275756836,0.012604951858520508,-9.331962585449219
293375264000,-0.0005679016467183828,-0.0006638636696152389,0.00017006893176585436,-3.0241987705230713,0.013087749481201172,-9.333394050598145
293389181000,-0.000337556644808501,6.478262366726995e-05,1.3867189409211278e-05,-2.999997615814209,0.02599203586578369,-9.323968887329102
293396028000,-0.0005883605335839093,-0.0003455305995885283,0.00010872305574594066,-3.0239734649658203,0.013422369956970215,-9.331790924072266
293403069000,0.0008041536784730852,-1.9641185645014048e-05,-0.00014094448124524206,-3.0400428771972656,-0.004486441612243652,-9.344325065612793
293409932000,-0.00037382543087005615,0.00016621864051558077,2.3741966288071126e-05,-3.000950574874878,0.029358386993408203,-9.32211685180664
293416913000,-0.0005393963656388223,-0.00034272982156835496,0.0001076279440894723,-3.0242152214050293,0.01253807544708252,-9.332219123840332
293430748000,-4.711582005256787e-05,3.0347822757903486e-05,4.7654913942096755e-05,-2.999570846557617,0.02471625804901123,-9.325881958007812
293437745000,-0.0005506224115379155,-0.00012266047997400165,0.00010487142571946606,-3.0243406295776367,0.01626288890838623,-9.33185863494873
293444645000,0.000838914536871016,0.00014051899779587984,-0.0001428672985639423,-3.0404248237609863,-0.004500269889831543,-9.343884468078613
293451708000,-0.00023771692940499634,0.0003049365768674761,1.0747913620434701e-05,-3.00065279006958,0.02847111225128174,-9.322617530822754
293458645000,-0.0005033175693824887,-0.00017622610903345048,0.00010998573998222128,-3.024294853210449,0.013568401336669922,-9.331045150756836
293472469000,-0.00019186316058039665,0.00026176992105320096,1.4624401956098154e-05,-3.0007410049438477,0.02849709987640381,-9.322708129882812
293479373000,-0.00046707384171895683,-0.00020124795264564455,0.00011328155233059078,-3.0242180824279785,0.01347053050994873,-9.331778526306152
293486586000,0.0008965259767137468,0.0002841295790858567,-0.00019491616694722325,-3.0407557487487793,-0.0032927989959716797,-9.342924118041992
293493264000,2.183568722102791e-05,0.00010141352686332539,5.319659976521507e-05,-2.999789237976074,0.024868249893188477,-9.325815200805664
293507180000,-0.0007352109532803297,-0.0006229059654287994,0.00018499436555430293,-3.0245935916900635,0.014063835144042969,-9.332517623901367
293514103000,0.0006227758713066578,4.0219398215413094e-05,-0.0001920573995448649,-3.040440797805786,-0.002398371696472168,-9.342991828918457
293521096000,-0.00033515848917886615,-0.00010156148346140981,7.034747977741063e-05,-2.9995293617248535,0.025726318359375,-9.324865341186523
293528007000,-0.000702215707860887,-0.00031637403299100697,0.00011276276200078428,-3.024137496948242,0.01516568660736084,-9.331740379333496
293535075000,0.0007085586548782885,0.0001842949423007667,-0.0001959269866347313,-3.0403690338134766,-0.0035719871520996094,-9.342246055603027
293548831000,-0.0006284686969593167,-0.0002539898850955069,0.00011026510037481785,-3.0242104530334473,0.015241265296936035,-9.331396102905273
293555825000,0.000648248300421983,0.00020758574828505516,-0.00017981493147090077,-3.0408997535705566,-0.002477407455444336,-9.341346740722656
293562724000,-0.00022510687995236367,-7.14141788193956e-05,6.796313391532749e-05,-3.000278949737549,0.02465951442718506,-9.325586318969727
293569704000,-0.0006278404034674168,-0.00030317369964905083,0.00011123238073196262,-3.024129867553711,0.015363812446594238,-9.331705093383789
293576621000,0.0006381462444551289,0.0001753286924213171,-0.00018166158406529576,-3.0409350395202637,-0.0024352073669433594,-9.341719627380371
293590618000,-0.0006496760761365294,-0.0003145858063362539,0.0001116291168727912,-3.0240509510040283,0.01540231704711914,-9.331897735595703
293597449000,0.0006180053460411727,0.0001693622616585344,-0.00018149116658605635,-3.0408926010131836,-0.002466917037963867,-9.341772079467773
293604432000,-0.0002549296186771244,-0.00010804491466842592,6.741971446899697e-05,-3.0001578330993652,0.024641752243041992,-9.325617790222168
293611338000,0.0009830810595303774,0.0005885218852199614,-0.00021270208526402712,-3.039966106414795,-0.002246260643005371,-9.343035697937012
293618388000,-9.392667561769485e-05,0.0005743302754126489,1.0928873962257057e-05,-3.0007336139678955,0.02753293514251709,-9.322510719299316
293632220000,-0.0004983104881830513,-0.0005166279734112322,0.00011615566472755745,-3.0248239040374756,0.013257861137390137,-9.331592559814453
293639174000,0.0007152417674660683,-0.00016513851005584002,-0.0001196827506646514,-3.040351390838623,-0.0030128955841064453,-9.34414005279541
293646058000,-0.00027266275719739497,-2.5019253371283412e-05,1.449076080461964e-05,-3.0005855560302734,0.027580618858337402,-9.323731422424316
293653071000,-0.0005945463199168444,-0.00038312189280986786,0.00010817664588103071,-3.023719310760498,0.013683676719665527,-9.333574295043945
293666999000,-0.00023077474907040596,4.665751475840807e-06,6.391727220034227e-05,-2.999948024749756,0.025619983673095703,-9.325127601623535
293673900000,-0.0006373518262989819,-0.0002265943039674312,0.00010786753409774974,-3.024141788482666,0.015352249145507812,-9.33199691772461
293680824000,0.000641787308268249,0.00024363459669984877,-0.0001834231079556048,-3.040947437286377,-0.0025072097778320312,-9.341506004333496
293687863000,-0.00023688722285442054,-1.7270591342821717e-05,6.746467261109501e-05,-3.00004243850708,0.02483224868774414,-9.325275421142578
293701661000,0.0007866569212637842,0.00021782249677926302,-0.0001955449115484953,-3.0404422283172607,-0.0034328699111938477,-9.34210205078125
293708570000,-0.0001786157808965072,1.3206852599978447e-05,6.770064646843821e-05,-3.0000929832458496,0.02559661865234375,-9.324908256530762
293715499000,-0.0005804944084957242,-0.00022751762298867106,0.00011215497215744108,-3.0242462158203125,0.015339970588684082,-9.331670761108398
293722583000,0.0006867977790534496,0.00023775195586495101,-0.0001801966573111713,-3.041027545928955,-0.002437591552734375,-9.341607093811035
293729432000,-0.0001942675735335797,-4.413510032463819e-05,7.040453783702105e-05,-3.0002059936523438,0.02474069595336914,-9.325531959533691
293736384000,-0.0005967195611447096,-0.0002709996188059449,0.00011258848098805174,-3.024219036102295,0.015341401100158691,-9.331831932067871
293750232000,-0.0001765107299434021,7.592199835926294e-06,6.815500819357112e-05,-3.0002570152282715,0.02544856071472168,-9.325108528137207
293757200000,-0.0005907521117478609,-0.00023014360340312123,0.0001112593017751351,-3.0242810249328613,0.015414953231811523,-9.331872940063477
293764199000,0.0006655456963926554,0.00023699126904830337,-0.00017836035112850368,-3.0409083366394043,-0.002331376075744629,-9.341575622558594
293771195000,-0.00020900431263726205,-4.231721686664969e-05,7.096509943949059e-05,-3.0002684593200684,0.02467823028564453,-9.325510025024414
293778014000,-0.0006094184354878962,-0.0002748529950622469,0.00011417253699619323,-3.0241503715515137,0.015349984169006348,-9.331666946411133
293791974000,-0.0001790524402167648,-6.504647899419069e-06,6.72986643621698e-05,-3.0003371238708496,0.025353431701660156,-9.325167655944824
293798886000,-0.0006014606333337724,-0.00024311727611348033,0.00011145048483740538,-3.024188756942749,0.015497446060180664,-9.331862449645996
293805963000,0.0006601709173992276,0.00022708845790475607,-0.00017934257630258799,-3.0409631729125977,-0.0024050474166870117,-9.34163761138916
293812781000,-0.00021936518896836787,-5.2226241677999496e-05,7.103264215402305e-05,-3.000178337097168,0.024735569953918457,-9.325460433959961
293819844000,-0.000613729702308774,-0.00028166951960884035,0.0001130530217778869,-3.024207592010498,0.01527714729309082,-9.331719398498535
293833709000,-0.0002236287109553814,-7.769808871671557e-05,7.125092088244855e-05,-3.0001296997070312,0.024699926376342773,-9.325488090515137
293840594000,-0.000621673243585974,-0.00030225422233343124,0.0001117591600632295,-3.024207353591919,0.015274882316589355,-9.331915855407715
293847505000,0.0006391335045918822,0.00017913576448336244,-0.0001800341997295618,-3.0408406257629395,-0.0024029016494750977,-9.341774940490723
293854577000,-0.00023546953161712736,-9.314989438280463e-05,7.008296233834699e-05,-3.000114917755127,0.024677157402038574,-9.325531959533691
293868498000,-7.688620826229453e-05,0.0005852737231180072,1.2192846043035388e-05,-3.0007822513580322,0.02754354476928711,-9.322486877441406
293875352000,-0.0002060737315332517,1.0762058082036674e-05,9.853034862317145e-05,-3.024547576904297,0.01225435733795166,-9.331053733825684
293882238000,-0.0005845112027600408,-0.0004248115583322942,0.00013023216160945594,-3.0252084732055664,0.015112757682800293,-9.330872535705566
293889201000,0.0008690809481777251,-0.00017714162822812796,-0.00013469145051203668,-3.040308952331543,-0.005121111869812012,-9.34482479095459
293896118000,-0.0003373619692865759,3.778905374929309e-05,3.0245439120335504e-05,-3.0007636547088623,0.02961885929107666,-9.322321891784668
293909988000,0.0007742028683423996,0.0001669960329309106,-0.00019862869521602988,-3.040224075317383,-0.0031844377517700195,-9.344186782836914
293916936000,-7.843384810257703e-05,1.6080637578852475e-05,4.9270827730651945e-05,-2.9994258880615234,0.024684429168701172,-9.32596492767334
293923949000,-0.0005792696611024439,-0.00012745329877361655,0.00010542415839154273,-3.0241100788116455,0.016199707984924316,-9.331921577453613
293930821000,0.0008185727056115866,0.00014318159082904458,-0.00014281258336268365,-3.0404157638549805,-0.004584670066833496,-9.3438720703125
293937788000,-0.00037920981412753463,0.0003149767580907792,2.7800975658465177e-05,-3.0008883476257324,0.029590725898742676,-9.321561813354492
293951709000,0.0008908994495868683,0.00022452924167737365,-0.0001955994957825169,-3.0406875610351562,-0.0035381317138671875,-9.34250545501709
293958633000,4.15370668633841e-05,4.5967761252541095e-05,5.1316113967914134e-05,-2.999785900115967,0.024567723274230957,-9.3259859085083
293965517000,-0.0004757824935950339,-0.00010065047536045313,0.00010661917622201145,-3.02427339553833,0.01636505126953125,-9.331880569458008
293972592000,0.0008966515306383371,0.0001773471594788134,-0.00013932566798757762,-3.0404067039489746,-0.0043833255767822266,-9.344107627868652
293979427000,-0.00018588386592455208,0.00034163822419941425,1.2718388461507857e-05,-3.0007874965667725,0.028513789176940918,-9.322676658630371
293993309000,-0.0006987224332988262,-0.000680436089169234,0.0001874507579486817,-3.0244414806365967,0.01410222053527832,-9.332588195800781
294000243000,0.0006443606107495725,9.077368304133415e-06,-0.00019100507779512554,-3.040339231491089,-0.0022819042205810547,-9.343234062194824
294007228000,-0.00029421719955280423,-0.0001322496245848015,6.807719182688743e-05,-2.9997072219848633,0.025429725646972656,-9.32525634765625
294014165000,-0.0006943787448108196,-0.0003163314249832183,0.00011122782598249614,-3.023921251296997,0.015402913093566895,-9.332234382629395
294028050000,-0.0002782157389447093,-6.297111394815147e-05,6.699930236209184e-05,-2.999936103820801,0.02472817897796631,-9.325450897216797
294035066000,0.000999400857836008,0.0006214682362042367,-0.00021383425337262452,-3.0401172637939453,-0.002467632293701172,-9.342508316040039
294041918000,-6.646168185397983e-05,0.0006111498223617673,9.513983968645334e-06,-3.000831127166748,0.02749025821685791,-9.322450637817383
294048865000,-0.00017996737733483315,2.9060407541692257e-05,9.583520295564085e-05,-3.0245563983917236,0.012204766273498535,-9.330745697021484
294062759000,0.0007599011296406388,6.830185884609818e-05,-0.00018949349760077894,-3.0404696464538574,-0.001908421516418457,-9.343195915222168
294069783000,-0.00020732590928673744,-9.18833538889885e-05,7.19049567123875e-05,-2.9998531341552734,0.02564382553100586,-9.325186729431152
294076709000,-0.0006314126658253372,-0.0002877131919376552,0.00011356244067428634,-3.0241658687591553,0.015540719032287598,-9.332438468933105
294083576000,0.0007434676517732441,0.00023375748423859477,-0.00019378647266421467,-3.0403356552124023,-0.003375530242919922,-9.342916488647461
294090676000,-0.00021233191364444792,3.877980634570122e-05,6.928459333721548e-05,-3.0000083446502686,0.025502800941467285,-9.32503604888916
294104591000,0.0007948796264827251,0.0002651573158800602,-0.00019357258861418813,-3.0406012535095215,-0.003502368927001953,-9.342096328735352
294111374000,-0.00017512525664642453,6.52245944365859e-05,7.091705629136413e-05,-3.000068187713623,0.025679469108581543,-9.324755668640137
294118390000,-0.0005648692604154348,-0.00020349663100205362,0.00011544708104338497,-3.024355888366699,0.01526784896850586,-9.331344604492188
294125290000,0.0008367399568669498,0.00025324401212856174,-0.00019265481387265027,-3.0408196449279785,-0.003621816635131836,-9.342363357543945
294139231000,-0.000555272912606597,-0.00019834673730656505,0.0001154487908934243,-3.0243821144104004,0.015382885932922363,-9.331705093383789
294146098000,0.000829482392873615,0.0002625234192237258,-0.00019127957057207823,-3.0407328605651855,-0.003476381301879883,-9.342486381530762
294153146000,-3.287278741481714e-05,7.313661626540124e-05,5.680620233761147e-05,-2.9997692108154297,0.024734973907470703,-9.325641632080078
294159980000,-0.0005430124001577497,-0.00010407259105704725,0.00011431632447056472,-3.024334192276001,0.01626300811767578,-9.33164119720459
294166916000,0.0008372690062969923,0.0003388882614672184,-0.00019055191660299897,-3.0408079624176025,-0.0033599138259887695,-9.341981887817383
294180860000,-0.000519967230502516,-8.379301289096475e-05,0.00011437045031925663,-3.024538516998291,0.016212940216064453,-9.331377029418945
294187855000,0.0008599521243013442,0.000354930991306901,-0.00018891773652285337,-3.040821075439453,-0.0032978057861328125,-9.341733932495117
294194698000,4.5943306758999825e-06,0.00012661729124374688,5.923566277488135e-05,-3.0000579357147217,0.024619102478027344,-9.325611114501953
294201707000,-0.0004998421063646674,-6.898574065417051e-05,0.00011580110003706068,-3.0245609283447266,0.016278505325317383,-9.331313133239746
294215533000,0.0007224155706353486,-0.0002657900331541896,-0.00012935855193063617,-3.0398950576782227,-0.005269765853881836,-9.344475746154785
294222531000,-0.0004417143063619733,-3.478245344012976e-05,3.309193562017754e-05,-3.0006067752838135,0.029260754585266113,-9.322341918945312
294229418000,-0.000632714363746345,-0.00047746498603373766,0.0001135704223997891,-3.0238490104675293,0.01266932487487793,-9.333181381225586
294236357000,0.000719176372513175,9.296508505940437e-05,-0.00019838822481688112,-3.040128231048584,-0.0033191442489624023,-9.344104766845703
294250293000,0.0008598656277172267,0.0006355885416269302,-0.00020069608581252396,-3.0404253005981445,-0.0011883974075317383,-9.342777252197266
294257240000,-1.7272832337766886e-06,0.0003778895770665258,5.1815761253237724e-05,-3.000190496444702,0.024628043174743652,-9.325273513793945
294264170000,-0.00034097733441740274,0.0001042582152877003,9.61281475611031e-05,-3.0245320796966553,0.014942765235900879,-9.330764770507812
294271177000,-0.0006776407826691866,-0.00037236144999042153,0.00013118807692080736,-3.025273323059082,0.014983415603637695,-9.329544067382812
294278039000,0.0007024821825325489,-0.0001725322799757123,-0.00011667186481645331,-3.0407180786132812,-0.004340529441833496,-9.342805862426758
294292000000,-0.0005779799539595842,-0.0004104365361854434,0.00011194827675353736,-3.0239200592041016,0.013600349426269531,-9.332990646362305
294298913000,0.0007521940860897303,0.00015287933638319373,-0.00019653179333545268,-3.0401134490966797,-0.003066539764404297,-9.343670845031738
294305860000,-0.00021859360276721418,-2.583938476163894e-05,6.608735566260293e-05,-2.999929904937744,0.025608062744140625,-9.325206756591797
294312763000,-0.000641297665424645,-0.0002449285238981247,0.00011011638707714155,-3.024232864379883,0.015498876571655273,-9.332206726074219
294326650000,-0.0002561743021942675,-3.341163392178714e-05,7.119643851183355e-05,-2.999953269958496,0.024862051010131836,-9.325299263000488
294333585000,-0.0006313977064564824,-0.00028933899011462927,0.00011319490295136347,-3.0244131088256836,0.015207171440124512,-9.331343650817871
294340576000,0.0006410811329260468,0.0001752288080751896,-0.00017860165098682046,-3.040907621383667,-0.002453446388244629,-9.34144115447998
294347484000,-0.00022944528609514236,-9.729136945679784e-05,7.058562187012285e-05,-3.0001864433288574,0.024625778198242188,-9.32559871673584
294361401000,-7.08887237124145e-05,0.0005808752030134201,1.2723619875032455e-05,-3.0008726119995117,0.02761673927307129,-9.322497367858887
294368388000,-0.00020430194854270667,6.751841283403337e-06,9.962749754777178e-05,-3.024538993835449,0.012295961380004883,-9.331140518188477
294375323000,-0.0005788079579360783,-0.0006276007043197751,0.00018929908401332796,-3.025078535079956,0.01408231258392334,-9.332354545593262
294382193000,0.0007215705700218678,4.280504072085023e-05,-0.00018679749337024987,-3.0405640602111816,-0.0019757747650146484,-9.343268394470215
294389204000,-0.00023485880228690803,-0.00013188929005991668,7.393681880785152e-05,-2.999953269958496,0.025475621223449707,-9.325343132019043
294403107000,0.0007053992012515664,0.00019606342539191246,-0.0001923666277434677,-3.040318489074707,-0.003311753273010254,-9.342954635620117
294409979000,-0.0002533038496039808,1.4063843991607428e-06,7.072161679388955e-05,-3.0000123977661133,0.02552628517150879,-9.325010299682617
294416921000,-0.0006452212110161781,-0.0002448054146952927,0.00011444215488154441,-3.0243587493896484,0.015354037284851074,-9.331467628479004
294423942000,0.000640359241515398,0.00021332973847165704,-0.00017841189401224256,-3.041031837463379,-0.002559065818786621,-9.341344833374023
294430810000,-0.0002328956761630252,-6.493380351457745e-05,7.198155799414963e-05,-3.000152587890625,0.024689197540283203,-9.32547664642334
294444703000,0.0006507515208795667,0.0001819290337152779,-0.00017834165191743523,-3.0408685207366943,-0.0024317502975463867,-9.34157657623291
294451732000,-0.0002255004656035453,-8.684868225827813e-05,7.157823711168021e-05,-3.0001087188720703,0.0247269868850708,-9.325517654418945
294458611000,-0.0006311151082627475,-0.0003120985347777605,0.00011330869165249169,-3.0243077278137207,0.015439629554748535,-9.331855773925781
294465587000,0.0006333619821816683,0.00017169048078358173,-0.00017964813741855323,-3.0409207344055176,-0.002427339553833008,-9.34183120727539
294472526000,-0.00024324901460204273,-9.676942136138678e-05,7.031013956293464e-05,-3.0001063346862793,0.024729013442993164,-9.325532913208008
294486474000,-8.963420987129211e-05,0.000577366619836539,1.371262624161318e-05,-3.0008084774017334,0.027652263641357422,-9.322416305541992
294493316000,-0.0002125162718584761,-8.306087693199515e-07,9.964514174498618e-05,-3.0246171951293945,0.012176871299743652,-9.331110000610352
294500252000,-0.0005994174862280488,-0.00043407772318460047,0.00013190472964197397,-3.0252561569213867,0.015227437019348145,-9.330794334411621
294507264000,0.0007366532227024436,-0.0002052031341008842,-0.00011886753782164305,-3.040769577026367,-0.004179596900939941,-9.344098091125488
294514167000,-0.0002579197462182492,-5.3415598813444376e-05,1.509839785285294e-05,-3.000515937805176,0.027621746063232422,-9.323808670043945
294528047000,0.0007324647740460932,0.00018360646208748221,-0.00019860808970406651,-3.0400002002716064,-0.003009319305419922,-9.343876838684082
294535076000,-0.00023021378729026765,6.435337127186358e-06,6.383158324752003e-05,-2.9999141693115234,0.02554917335510254,-9.325164794921875
294541954000,-0.000635114498436451,-0.00022157479543238878,0.00010769195068860427,-3.0242671966552734,0.015372872352600098,-9.331981658935547
294548897000,0.0007629290921613574,0.0002611326053738594,-0.00019920476188417524,-3.0405004024505615,-0.0035358667373657227,-9.342254638671875
294562773000,-0.0005768848932348192,-0.00019867855007760227,0.00010957584163406864,-3.0244431495666504,0.015234947204589844,-9.331147193908691
294569816000,0.0008269504178315401,0.0002676213043741882,-0.00019691564375534654,-3.0405759811401367,-0.0035610198974609375,-9.342004776000977
294576713000,-0.00014552708307746798,6.432605732697994e-05,6.773744826205075e-05,-3.000030040740967,0.025654077529907227,-9.324806213378906
294583596000,-0.0005415094783529639,-0.00019536534091457725,0.00011109551996923983,-3.024502754211426,0.015334367752075195,-9.331486701965332
294590595000,0.0008394863689318299,0.00027729925932362676,-0.00019489995611365885,-3.040562868118286,-0.003408193588256836,-9.342276573181152
294604490000,-0.0005412731552496552,-0.0001832923444453627,0.00011285211803624406,-3.0243897438049316,0.015499711036682129,-9.331705093383789
294611380000,0.0008375982288271189,0.000293736404273659,-0.0001932171144289896,-3.040541172027588,-0.003390073776245117,-9.342325210571289
294618391000,-8.650422387290746e-06,8.542195428162813e-05,5.425784183898941e-05,-2.999812602996826,0.02447986602783203,-9.32581615447998
294625280000,-0.000524335540831089,-8.830535807646811e-05,0.00011142707080580294,-3.024394989013672,0.016357898712158203,-9.33156681060791
294632210000,0.0008703001076355577,0.00015786621952429414,-0.00013453883002512157,-3.0404534339904785,-0.004553437232971191,-9.343475341796875
294646103000,-0.00045311625581234694,-0.00017652174574322999,0.00011536220699781552,-3.024468421936035,0.013229608535766602,-9.331307411193848
294653145000,0.000908917689230293,0.00031014386331662536,-0.0001910692371893674,-3.040517807006836,-0.0032385587692260742,-9.342418670654297
294659996000,5.816531484015286e-05,0.00011352709407219663,5.640736344503239e-05,-2.999814033508301,0.02451145648956299,-9.325870513916016
294666939000,-0.0003458430292084813,-4.30884538218379e-05,9.800715633900836e-05,-3.0239577293395996,0.015403389930725098,-9.332438468933105
294680823000,0.0005366501281969249,0.0001319657894782722,-0.00017600166029296815,-3.040827751159668,-0.0005255937576293945,-9.34229850769043
294687931000,-0.0003400088753551245,0.00010221111006103456,1.590079045854509e-05,-2.9999918937683105,0.02591097354888916,-9.323790550231934
294694719000,-0.0005685813957825303,-0.0003194602904841304,0.00011198796710232273,-3.0239572525024414,0.01323235034942627,-9.331365585327148
294701723000,0.0008361116633750498,-3.721797838807106e-06,-0.00013939627388026565,-3.040102958679199,-0.004613399505615234,-9.344103813171387
294708615000,-0.000223046779865399,0.00019644973508547992,1.1003256076946855e-05,-3.0004701614379883,0.02830958366394043,-9.322772979736328
294722531000,0.0008619296131655574,0.00026611797511577606,-0.00019825008348561823,-3.040532112121582,-0.0034613609313964844,-9.343008995056152
294729442000,-8.407660061493516e-07,8.249058009823784e-05,4.976753916707821e-05,-2.999668598175049,0.02467501163482666,-9.325815200805664
294736469000,-0.0005116628017276525,-7.843857747502625e-05,0.00010718064004322514,-3.0243725776672363,0.01628732681274414,-9.331718444824219
294743356000,0.000878754653967917,0.00017818983178585768,-0.00013881515769753605,-3.040402889251709,-0.0045490264892578125,-9.343709945678711
294757249000,-0.00034940720070153475,-0.00013878740719519556,9.906399645842612e-05,-3.023836612701416,0.012535452842712402,-9.331802368164062
294764159000,0.0009376329835504293,0.0002081425627693534,-0.00013648970343638211,-3.0403780937194824,-0.003658294677734375,-9.343762397766113
294771188000,-0.0001524295803392306,0.0003590424021240324,1.7443482647649944e-05,-3.0007381439208984,0.02852654457092285,-9.322516441345215
294778110000,-0.0002943520958069712,-0.0001230795169249177,0.00010025881056208163,-3.024092197418213,0.012315750122070312,-9.332213401794434
294785038000,-0.0005556027172133327,-0.0006637127953581512,0.00017418796778656542,-3.024106025695801,0.013182640075683594,-9.333592414855957
294798910000,-0.0003231392474845052,8.2425307482481e-05,1.631721534067765e-05,-3.00001859664917,0.02586960792541504,-9.323992729187012
294805934000,-0.0005751863936893642,-0.0003267952415626496,0.00011212743993382901,-3.023869752883911,0.013394355773925781,-9.331762313842773
294812773000,0.0008183300378732383,0.00018894404638558626,-0.0001970182202057913,-3.0403852462768555,-0.003588557243347168,-9.342985153198242
294819819000,-2.8750073397532105e-05,3.21714069286827e-05,4.982409154763445e-05,-2.999507188796997,0.02459084987640381,-9.325834274291992
294833593000,0.0008561050635762513,0.0001495066680945456,-0.00014163850573822856,-3.0403881072998047,-0.004556059837341309,-9.343948364257812
294840626000,-0.00021934871620032936,0.00031529605621472,1.1876312782987952e-05,-3.000631332397461,0.02840590476989746,-9.322612762451172
294847501000,-0.0003634642343968153,-0.00014205634943209589,9.565418440615758e-05,-3.0238466262817383,0.012474417686462402,-9.33187484741211
294854516000,0.0009255189215764403,0.00020354008302092552,-0.00013877611490897834,-3.040297508239746,-0.0036660432815551758,-9.343749046325684
294868359000,-0.0003107237571384758,-0.00010975697659887373,9.846645116340369e-05,-3.0239055156707764,0.012527227401733398,-9.331955909729004
294875303000,-0.0005529518239200115,-0.0006749462336301804,0.00017173272499348968,-3.0242481231689453,0.012969493865966797,-9.333575248718262
294882205000,0.0005554610397666693,8.557341061532497e-05,-0.00017908442532643676,-3.0407886505126953,-0.0003699064254760742,-9.342752456665039
294889199000,-0.0003309056628495455,6.837813998572528e-05,1.4223707694327459e-05,-2.999903678894043,0.025975346565246582,-9.323962211608887
294896132000,-0.0005830876179970801,-0.00033530019572936,0.00010889465920627117,-3.0239272117614746,0.013370990753173828,-9.331878662109375
294909996000,-0.0002471260086167604,0.00019674452778417617,9.480441804043949e-06,-3.0004613399505615,0.028267502784729004,-9.322834968566895
294916936000,-0.0005262530175969005,-0.00022865762002766132,0.00010769320942927152,-3.0240087509155273,0.01354360580444336,-9.331925392150879
294923935000,0.0008579136338084936,7.508916314691305e-05,-0.00014183846360538155,-3.0402297973632812,-0.004515528678894043,-9.344271659851074
294930854000,-0.00022145459661260247,0.0002520147245377302,1.0812946129590273e-05,-3.0005295276641846,0.028453588485717773,-9.322747230529785
294937873000,-0.0005015934584662318,-0.00019106059335172176,0.00011005006672348827,-3.0241477489471436,0.013561129570007324,-9.331650733947754
294951894000,6.3725237851031125e-06,9.48739834711887e-05,5.1192109822295606e-05,-2.9998042583465576,0.0247037410736084,-9.325817108154297
294958684000,-0.0005053244531154633,-5.635098204948008e-05,0.00010558100620983168,-3.0244431495666504,0.016331076622009277,-9.331657409667969
294965631000,0.0008918190142139792,0.0001765493070706725,-0.0001370014069834724,-3.0403966903686523,-0.004637002944946289,-9.343607902526855
294972625000,-0.00019064443768002093,0.00033517362317070365,1.6846825019456446e-05,-3.000678777694702,0.028456687927246094,-9.322600364685059
294979501000,-0.00033746863482519984,-0.00013543947716243565,9.960438183043152e-05,-3.0239524841308594,0.012478351593017578,-9.331875801086426
294993397000,0.0005200076848268509,0.000265573151409626,-0.0002335548197152093,-3.041001319885254,0.0007040500640869141,-9.34109878540039
295000335000,-0.000248224037932232,-0.00014193850802257657,6.860215216875076e-05,-2.9996025562286377,0.022957921028137207,-9.326462745666504
295007348000,-0.0006403757724910975,-0.0003286194405518472,0.00010970592120429501,-3.0240650177001953,0.015341877937316895,-9.33200454711914
295014230000,0.0007523413514718413,0.0001860297634266317,-0.00019857156439684331,-3.040292739868164,-0.003487110137939453,-9.342630386352539
295028120000,-0.0005958880065008998,-0.00022579741198569536,0.00010759443102870136,-3.024367332458496,0.015265464782714844,-9.33174991607666
295035085000,0.0007905554957687855,0.0002576014958322048,-0.00019800459267571568,-3.0404205322265625,-0.00342559814453125,-9.342283248901367
295042028000,-0.00017139609553851187,5.7027136790566146e-05,6.55622425256297e-05,-3.000086545944214,0.02553737163543701,-9.324891090393066
295048938000,-0.0005715667502954602,-0.00019388538203202188,0.0001110869343392551,-3.0243425369262695,0.015415072441101074,-9.331378936767578
295056001000,0.0008221017196774483,0.0002725930535234511,-0.00019497890025377274,-3.040583610534668,-0.003509998321533203,-9.342168807983398
295069826000,-0.0005361875519156456,-0.00010499247582629323,0.00011076244845753536,-3.024494171142578,0.016196012496948242,-9.331560134887695
295076724000,0.000860431871842593,0.00013548601418733597,-0.00013666787708643824,-3.0405197143554688,-0.004581570625305176,-9.343503952026367
295083661000,-0.0002191735547967255,0.0002930891059804708,1.7052472685463727e-05,-3.000678062438965,0.028453469276428223,-9.322498321533203
295090655000,-0.0004885258385911584,-0.00018997490406036377,0.00011669057130347937,-3.0242905616760254,0.013509511947631836,-9.331171989440918
295104540000,2.752221917035058e-05,6.45696563879028e-05,5.63797693757806e-05,-2.9998269081115723,0.024617671966552734,-9.325926780700684
295111476000,-0.00038048060378059745,-8.475000504404306e-05,9.838987898547202e-05,-3.023972511291504,0.015426278114318848,-9.332477569580078
295118463000,-0.0007593554328195751,-0.0006637543556280434,0.0001891120191430673,-3.0245823860168457,0.014160513877868652,-9.332744598388672
295125371000,0.000583950721193105,6.518850568681955e-06,-0.00018869656196329743,-3.0404725074768066,-0.0023287534713745117,-9.343120574951172
295132282000,-0.000360229576472193,-0.00014866454876028,7.187142909970134e-05,-2.9997236728668213,0.02548682689666748,-9.325028419494629
295146204000,-0.00015806392184458673,0.0005547371692955494,1.2048330972902477e-05,-3.000741481781006,0.027511000633239746,-9.322488784790039
295153234000,-0.0002745525271166116,-8.902803529053926e-06,9.978126036003232e-05,-3.0243382453918457,0.012329936027526855,-9.330495834350586
295160066000,-0.0006088859518058598,-0.0006578780012205243,0.00018904991156887263,-3.0251009464263916,0.013796091079711914,-9.331932067871094
295167000000,0.0007095173932611942,1.4078104868531227e-05,-0.00018775694479700178,-3.0405311584472656,-0.0020807981491088867,-9.34306526184082
295180900000,-0.0006769884494133294,-0.00034051129478029907,0.00011460509995231405,-3.0241475105285645,0.015506148338317871,-9.332429885864258
295187896000,0.0006934078992344439,0.00017548806499689817,-0.00019310011703055352,-3.0403194427490234,-0.0033407211303710938,-9.342938423156738
295194806000,-0.0002647036744747311,-2.032335032708943e-05,7.012276910245419e-05,-3.0000057220458984,0.025518298149108887,-9.325040817260742
295201793000,-0.0006591667188331485,-0.0002657111908774823,0.00011407289275666699,-3.0243468284606934,0.015356063842773438,-9.331579208374023
295208705000,0.0006174533627927303,0.00019018520833924413,-0.00017741741612553596,-3.040968894958496,-0.0025072097778320312,-9.34141731262207
295222618000,-0.000655436422675848,-0.0003299785894341767,0.00011695214925566688,-3.0242576599121094,0.015150189399719238,-9.331466674804688
295229501000,0.000613032781984657,0.0001378974411636591,-0.00017478663357906044,-3.040897846221924,-0.002468585968017578,-9.341573715209961
295236562000,-0.0002671847469173372,-0.0001385948999086395,7.404093776131049e-05,-3.000166416168213,0.024709582328796387,-9.325559616088867
295243391000,0.0008533012587577105,0.0005376521148718894,-0.00019160014926455915,-3.040468454360962,-0.0013141632080078125,-9.342418670654297
295250335000,-9.564755600877106e-06,0.0002554503735154867,5.745974340243265e-05,-3.0003116130828857,0.024493813514709473,-9.325520515441895
295264255000,0.0008704073843546212,0.00037203734973445535,-0.0001827157975640148,-3.040987491607666,-0.003392338752746582,-9.341166496276855
295271216000,3.3776232157833874e-06,0.00010964438843075186,6.42415980109945e-05,-3.0002355575561523,0.024569272994995117,-9.325607299804688
295278122000,-0.0005204958724789321,-0.00011329131666570902,0.00012319741654209793,-3.024646759033203,0.016404271125793457,-9.33112907409668
295285068000,-0.0007893610745668411,-0.0006242275703698397,0.00014176443801261485,-3.025088310241699,0.014145374298095703,-9.330944061279297
295298953000,-0.00032793686841614544,-0.0003733139601536095,7.698046101722866e-05,-2.9997410774230957,0.024752020835876465,-9.326027870178223
295305939000,0.0007765244226902723,0.00037938953028060496,-0.00019171476014889777,-3.040027141571045,-0.0011343955993652344,-9.343109130859375
295312846000,-8.099172555375844e-05,0.00014434328477364033,5.722451533074491e-05,-2.9999513626098633,0.02445089817047119,-9.326027870178223
295319931000,-0.0006001932197250426,-4.9806840252131224e-05,0.00011456391803221777,-3.0245606899261475,0.016297578811645508,-9.331663131713867
295326739000,0.0007863272912800312,0.00035267049679532647,-0.0001883460790850222,-3.0408058166503906,-0.003432035446166992,-9.341497421264648
295340731000,-0.0005602481542155147,-0.00011983196600340307,0.00011990952043561265,-3.0246565341949463,0.01611912250518799,-9.330635070800781
295347560000,0.0008231872925534844,0.00028026674408465624,-0.0001845891383709386,-3.0408544540405273,-0.0033943653106689453,-9.341486930847168
295354570000,-0.00016097252955660224,3.0224095098674297e-05,7.975578773766756e-05,-3.0003840923309326,0.025615334510803223,-9.324912071228027
295361476000,-0.0005647650104947388,-0.00025661627296358347,0.00012211267312522978,-3.0247445106506348,0.015297651290893555,-9.331625938415527
295375374000,-7.135987107176334e-05,-8.948758477345109e-06,6.281262176344171e-05,-2.999894142150879,0.024527430534362793,-9.325919151306152
295382280000,-0.0005959654226899147,-0.00018083848408423364,0.00012020860594930127,-3.0243654251098633,0.01640927791595459,-9.331647872924805
295389307000,0.0007711196085438132,0.0002692866255529225,-0.0001862437929958105,-3.0407023429870605,-0.0033370256423950195,-9.342276573181152
295396193000,-0.00019650578906293958,3.154584555886686e-05,7.783909677527845e-05,-3.0002963542938232,0.02545928955078125,-9.325058937072754
295410078000,0.0007690758211538196,0.00022106629330664873,-0.00018370451289229095,-3.0405871868133545,-0.0033806562423706055,-9.342097282409668
295417017000,-7.9898520198185e-05,1.609048922546208e-06,6.278767250478268e-05,-2.999880790710449,0.024471640586853027,-9.325838088989258
295424017000,-0.0005984160816296935,-0.0001778602018021047,0.00011870362504851073,-3.024435520172119,0.01635885238647461,-9.331603050231934
295430919000,0.0007718609995208681,0.00026300683384761214,-0.00018494160030968487,-3.0406241416931152,-0.003333568572998047,-9.34205150604248
295437916000,-0.00019964177045039833,2.037946251221001e-05,7.763343455735594e-05,-3.000363826751709,0.025502681732177734,-9.32502269744873
295451729000,0.0007663664291612804,0.00021542428294196725,-0.00018350833852309734,-3.0405173301696777,-0.003354787826538086,-9.342123031616211
295458732000,-7.946777623146772e-05,-2.494300133548677e-06,6.294030754361302e-05,-2.9998679161071777,0.024445414543151855,-9.325846672058105
295465626000,-0.0005965871969237924,-0.00017998524708673358,0.00011873515177285299,-3.024423837661743,0.016350984573364258,-9.331608772277832
295472621000,0.000771153368987143,0.0002647445653565228,-0.00018497643759474158,-3.04060697555542,-0.0033107995986938477,-9.342083930969238
295486549000,-0.0006166431703604758,-0.00024838364333845675,0.00012253689055796713,-3.0244638919830322,0.015531539916992188,-9.331363677978516
295493457000,0.0007791198440827429,0.00019390910165384412,-0.00018653864390216768,-3.0408449172973633,-0.003651142120361328,-9.342428207397461
295500335000,-0.00020878194482065737,-1.5671394066885114e-05,7.70829210523516e-05,-3.000087022781372,0.025760650634765625,-9.32487964630127
295507322000,-0.0006280536763370037,-0.00026920472737401724,0.00012186476669739932,-3.024380683898926,0.015509605407714844,-9.331666946411133
295514232000,0.0007591707399114966,0.0001842144993133843,-0.00018638919573277235,-3.0407137870788574,-0.0035752058029174805,-9.342573165893555
295528141000,-0.0006421948783099651,-0.000281855056528002,0.00012063105532433838,-3.0244407653808594,0.015473127365112305,-9.331727981567383
295535081000,0.000743687734939158,0.00017061317339539528,-0.00018756564531940967,-3.0407214164733887,-0.003571629524230957,-9.342597007751465
295542064000,-0.00024084336473606527,-3.842961450573057e-05,7.618699601152912e-05,-3.00007700920105,0.025719761848449707,-9.324931144714355
295548973000,-0.0006583645008504391,-0.0002896910591516644,0.00012085931666661054,-3.024366855621338,0.015500903129577637,-9.331656455993652
295562861000,-0.0002743894583545625,-0.00012715203047264367,7.693633961025625e-05,-3.000169515609741,0.024821758270263672,-9.32553482055664
295569877000,-0.0006993325660005212,-0.0001607933663763106,6.182480865390971e-05,-3.0245141983032227,0.016608476638793945,-9.330315589904785
295576838000,0.0008239825256168842,-0.00010319211287423968,-0.0001354123087367043,-3.0402417182922363,-0.006509542465209961,-9.344098091125488
295583758000,-0.0002559999702498317,-0.00012198247713968158,7.15845453669317e-05,-3.000405788421631,0.027354955673217773,-9.324483871459961
295590874000,0.0008295543375425041,0.0005598508287221193,-0.00019255651568528265,-3.0403430461883545,-0.0010075569152832031,-9.342789649963379
295604745000,-0.0005385625408962369,-1.1613010428845882e-06,0.00012042468006256968,-3.024869918823242,0.016066312789916992,-9.330557823181152
295611572000,-0.000793283456005156,-0.0005529887857846916,0.00014163428568281233,-3.025294065475464,0.01423954963684082,-9.329852104187012
295620397000,-0.0004078324418514967,-0.001467604422941804,0.0002793799212668091,-2.9794821739196777,0.02925276756286621,-9.327988624572754
295626952000,0.0008009523153305054,-6.740615935996175e-05,-0.0002343530359212309,-3.052854061126709,-0.0022292137145996094,-9.344292640686035
295633784000,-0.0008131579961627722,0.0004704335005953908,-1.0437099263072014e-05,-2.9920196533203125,0.03658485412597656,-9.315118789672852
295647667000,1.9353494280949235e-05,0.00023063979460857809,6.984938227105886e-05,-3.000865936279297,0.02659440040588379,-9.325244903564453
295654782000,-0.00045547570334747434,-8.425393025390804e-05,0.00011773355072364211,-3.0248942375183105,0.01567542552947998,-9.33212947845459
295661570000,0.0008750945562496781,0.00032682938035577536,-0.0001866202219389379,-3.04095196723938,-0.0032585859298706055,-9.342711448669434
295668506000,-3.068567457376048e-05,8.7463587988168e-05,6.303835107246414e-05,-2.9999499320983887,0.024823546409606934,-9.326053619384766
295682410000,0.0007927385740913451,0.0002947153989225626,-0.00018144185014534742,-3.0407662391662598,-0.003378629684448242,-9.34190559387207
295689391000,-8.076881931629032e-05,5.9035883168689907e-05,6.613691220991313e-05,-2.9999234676361084,0.024587035179138184,-9.325918197631836
295696279000,-0.0005892773042432964,-0.00014964109868742526,0.00012423669977579266,-3.0244674682617188,0.016249656677246094,-9.331171989440918
295703282000,0.0007891081040725112,0.00026694248663261533,-0.000180522765731439,-3.04070782661438,-0.003433823585510254,-9.341772079467773
295717112000,-0.0005863365367986262,-0.00015827803872525692,0.0001243067963514477,-3.024463176727295,0.016246557235717773,-9.331315040588379
295724111000,0.0008073044009506702,0.00026531354524195194,-0.0001825005456339568,-3.0408270359039307,-0.0036503076553344727,-9.34209156036377
295731006000,-5.806486296933144e-05,4.427921521710232e-05,6.432687223423272e-05,-2.9998371601104736,0.024544239044189453,-9.32593059539795
295738064000,-0.0005798247293569148,-0.0001379687455482781,0.00012177143798908219,-3.0243477821350098,0.016355395317077637,-9.33146858215332
295744933000,0.0008017879445105791,0.00029876542976126075,-0.00018308193830307573,-3.040646553039551,-0.003467082977294922,-9.341914176940918
295751831000,-5.507832975126803e-05,7.696857210248709e-05,6.517347355838865e-05,-2.9997968673706055,0.024483680725097656,-9.325809478759766
295765748000,-0.0008147677290253341,-0.0005201816093176603,0.00013930597924627364,-3.0247769355773926,0.015138864517211914,-9.330652236938477
295772799000,0.0005409560399129987,-8.548860205337405e-05,-0.00016899524780455977,-3.040757656097412,-0.0031396150588989258,-9.341959953308105
295779625000,-0.00032511091558262706,-0.00031056732404977083,7.671378261875361e-05,-2.999917507171631,0.024645566940307617,-9.325971603393555
295786871000,0.0009022057056427002,0.0004441915370989591,-0.0002057572128251195,-3.03964900970459,-0.0021359920501708984,-9.343668937683105
295793513000,-0.0001718109124340117,0.0004637563833966851,1.6560908989049494e-05,-3.000514030456543,0.027529239654541016,-9.32288932800293
295807447000,-0.0007090579019859433,-0.0005806203698739409,0.00013410068640951067,-3.025146007537842,0.014195442199707031,-9.33113956451416
295814364000,0.0007216003141365945,-9.315821807831526e-05,-0.00018819436081685126,-3.0401253700256348,-0.0038068294525146484,-9.34339714050293
295821631000,-0.00024479650892317295,-0.00024562759790569544,7.078245107550174e-05,-2.9998726844787598,0.025560498237609863,-9.325662612915039
295828300000,0.0009620616910979152,0.0004985054256394506,-0.00021113755065016448,-3.0397791862487793,-0.0020291805267333984,-9.343954086303711
295835179000,-0.00012266298290342093,0.0004984911065548658,1.0109120921697468e-05,-3.000751495361328,0.02749335765838623,-9.323328018188477
295849066000,-0.0006786245503462851,-0.0006244502146728337,0.00018876753165386617,-3.024712324142456,0.01410067081451416,-9.33232307434082
295856106000,0.000651716545689851,2.7722911909222603e-05,-0.0001865058729890734,-3.04056453704834,-0.002176642417907715,-9.34290885925293
295863105000,-0.0003104877541773021,-0.0001379544410156086,7.476467726519331e-05,-2.9998350143432617,0.02563011646270752,-9.3251371383667
295870200000,-0.0007142342510633171,-0.00034514543949626386,0.00011617015115916729,-3.0240478515625,0.015335559844970703,-9.332164764404297
295883830000,-0.0003184150846209377,-0.0001094341860152781,7.411166006932035e-05,-2.9999399185180664,0.024811387062072754,-9.325440406799316
295890841000,-0.0006978137535043061,-0.0003522428742144257,0.00011678021110128611,-3.024106502532959,0.015171647071838379,-9.331526756286621
295897703000,0.0005779751809313893,0.00011766370153054595,-0.00017691709217615426,-3.0409131050109863,-0.0025179386138916016,-9.341564178466797
295904700000,-0.00029774679569527507,-0.00015029979113023728,7.333210669457912e-05,-3.000072956085205,0.02466869354248047,-9.325600624084473
295918534000,-0.000142229488119483,0.0005219037993811071,1.5141195035539567e-05,-3.0006508827209473,0.027646422386169434,-9.322522163391113
295925492000,-0.0003912936372216791,-7.060033385641873e-05,0.00011624093895079568,-3.024996280670166,0.013233304023742676,-9.330368995666504
295932458000,0.0009664549143053591,0.000328985508531332,-0.00018774466298054904,-3.041046142578125,-0.0033309459686279297,-9.342010498046875
295939425000,7.446661038557068e-05,8.766480459598824e-05,6.036694685462862e-05,-3.0001211166381836,0.024764657020568848,-9.32587718963623
295946499000,-0.0003598738112486899,-8.749755215831101e-05,0.00010389973613200709,-3.0241189002990723,0.015591144561767578,-9.332442283630371
295960202000,0.0005784728564321995,-0.00023816380416974425,-0.00011330870620440692,-3.0405313968658447,-0.004125237464904785,-9.343981742858887
295967121000,-0.000406732753617689,-7.773455581627786e-05,2.2132542653707787e-05,-3.00028657913208,0.027663588523864746,-9.323517799377441
295974159000,-0.0007000489858910441,-0.0004471424035727978,0.00011678074224619195,-3.023556709289551,0.013588905334472656,-9.332712173461914
295981062000,0.0005591333610936999,7.376685971394181e-05,-0.0001774846314219758,-3.040680408477783,-0.0025146007537841797,-9.342737197875977
295988079000,-0.00032527692383155227,-0.00015849847113713622,7.225674926303327e-05,-2.9998035430908203,0.024861812591552734,-9.32561206817627
296001846000,-0.00015285875997506082,0.0005393684841692448,1.3297707482706755e-05,-3.000609874725342,0.027515292167663574,-9.322606086730957
296008853000,-0.0004008726100437343,-4.0269718738272786e-05,0.00011582714068936184,-3.0248050689697266,0.013360381126403809,-9.330023765563965
296015738000,-0.0006663283566012979,-0.0005689092795364559,0.00013552303425967693,-3.0251784324645996,0.014179706573486328,-9.330602645874023
296022770000,0.000779408379457891,-0.00010188814485445619,-0.0001895373861771077,-3.0404257774353027,-0.004026293754577637,-9.343515396118164
296036669000,0.0010184256825596094,0.0004863437497988343,-0.00021524427575059235,-3.039945602416992,-0.0021768808364868164,-9.344320297241211
296043572000,-9.909144137054682e-05,0.000518864719197154,8.785624231677502e-06,-3.000462532043457,0.02788567543029785,-9.32319450378418
296050476000,-0.00028351161745376885,5.324749508872628e-06,9.55900177359581e-05,-3.024268865585327,0.012584924697875977,-9.332465171813965
296057469000,-0.0006666615954600275,-0.0005972390063107014,0.00018593310960568488,-3.024749994277954,0.014150142669677734,-9.33259391784668
296064374000,0.0006612086435779929,5.81419444642961e-05,-0.0001893665612442419,-3.0405588150024414,-0.0021331310272216797,-9.342935562133789
296078262000,-0.0006710534216836095,-0.0002274557191412896,0.0001116053681471385,-3.024091958999634,0.016099095344543457,-9.331911087036133
296085177000,0.0007267550099641085,0.00024103239411488175,-0.00019519744091667235,-3.040572166442871,-0.003484368324279785,-9.342162132263184
296092211000,-0.0002418431540718302,4.080089274793863e-05,6.958673475310206e-05,-3.0000500679016113,0.025663375854492188,-9.324833869934082
296099100000,-0.0006131773698143661,-0.00022849166998639703,0.00011236711725359783,-3.0244195461273193,0.015169739723205566,-9.331089973449707
296112982000,-0.00018340389942750335,2.6909314328804612e-05,6.92543835612014e-05,-3.0002217292785645,0.02561509609222412,-9.324929237365723
296120013000,-0.0005842470563948154,-0.00022865337086841464,0.00011503011046443135,-3.0242667198181152,0.015382528305053711,-9.331427574157715
296126866000,0.0008013595943339169,0.00023901060922071338,-0.00019255830557085574,-3.0406928062438965,-0.003414750099182129,-9.342260360717773
296133802000,-0.00016518137999810278,2.257739834021777e-05,7.056925096549094e-05,-3.0002808570861816,0.025534510612487793,-9.325108528137207
296147687000,0.0007901184726506472,0.00024871533969417214,-0.00019092639558948576,-3.0406384468078613,-0.00334322452545166,-9.342336654663086
296154680000,-7.22326512914151e-05,5.477288505062461e-05,5.853011680301279e-05,-2.999704599380493,0.02475130558013916,-9.325591087341309
296161592000,-0.000574390054680407,-0.0001359849702566862,0.00011476822692202404,-3.0244269371032715,0.01618063449859619,-9.33159351348877
296168552000,0.0008083414868451655,0.00030848116148263216,-0.00018869733321480453,-3.0407602787017822,-0.003370046615600586,-9.341909408569336
296175509000,-0.00016270647756755352,6.955611752346158e-05,7.357513095485047e-05,-3.0004637241363525,0.025571346282958984,-9.324962615966797
296189390000,0.0008103614673018456,0.00026164110749959946,-0.0001859532785601914,-3.040642261505127,-0.0032806396484375,-9.342035293579102
296196376000,-3.451635711826384e-05,4.7279281716328114e-05,5.92302531003952e-05,-3.00006103515625,0.02449190616607666,-9.32583999633789
296203352000,-0.0005515862721949816,-0.00012770990724675357,0.00011652905232040212,-3.0243539810180664,0.016347169876098633,-9.331624031066895
296210202000,0.0008173526730388403,0.0003151960554532707,-0.0001869873231044039,-3.0407538414001465,-0.003245711326599121,-9.342021942138672
296217133000,-3.5026507248403504e-05,9.408184268977493e-05,5.999125278322026e-05,-3.0000882148742676,0.02457451820373535,-9.325706481933594
296231037000,0.0008621175074949861,0.00021944468608126044,-0.0001307231286773458,-3.0406150817871094,-0.003596782684326172,-9.343287467956543
296238082000,-0.0002209310041507706,0.00035556493094190955,2.2597894712816924e-05,-3.0010294914245605,0.02852010726928711,-9.322305679321289
296244931000,-0.0003626006073318422,-0.00014595450193155557,0.00010710060450946912,-3.0240204334259033,0.012505412101745605,-9.331408500671387
296251874000,-0.000606538204010576,-0.0005356795736588538,0.00012174645235063508,-3.0246191024780273,0.014043927192687988,-9.331839561462402
296265750000,-0.0003496787103358656,-3.0044931918382645e-05,1.9997558410977945e-05,-3.000417470932007,0.027616143226623535,-9.323512077331543
296272741000,-0.0006413437076844275,-0.0004078454221598804,0.00011439199442975223,-3.0238595008850098,0.013558268547058105,-9.332929611206055
296279677000,0.0007086209952831268,0.0001446775277145207,-0.0001943236857187003,-3.0401644706726074,-0.003191828727722168,-9.343422889709473
296286690000,-0.00025999773060902953,-3.900023875758052e-05,6.949812086531892e-05,-2.999873161315918,0.025638699531555176,-9.325079917907715
296293562000,-0.0006631242576986551,-0.0002644594933371991,0.00011205106420675293,-3.024338722229004,0.015383243560791016,-9.331936836242676
296307502000,-0.00027658636099658906,-6.848922930657864e-05,7.304383325390518e-05,-2.9999804496765137,0.024887561798095703,-9.325305938720703
296314391000,-0.000658189645037055,-0.00032074234331957996,0.00011501384869916365,-3.0244100093841553,0.015276312828063965,-9.331404685974121
296321435000,0.0006118854507803917,0.0001457066973671317,-0.00017673845286481082,-3.040911912918091,-0.0024254322052001953,-9.341506004333496
296328322000,-0.00026039170916192234,-0.00013049182598479092,7.106894918251783e-05,-3.0002505779266357,0.024659037590026855,-9.325617790222168
296335241000,0.0009700434166006744,0.0005633309483528137,-0.00020785347442142665,-3.0399608612060547,-0.0020749568939208984,-9.342921257019043
296349127000,-0.0002424442645860836,-3.546997322700918e-05,0.00010169199958909303,-3.0245134830474854,0.01224052906036377,-9.331164360046387
296356141000,-0.0006340541876852512,-0.000467597070382908,0.00013406800280790776,-3.025254249572754,0.015256643295288086,-9.330862045288086
296363010000,0.0007019104668870568,-0.00023885577684268355,-0.00011663884652080014,-3.040774345397949,-0.0041942596435546875,-9.34415340423584
296370068000,-0.0003073147381655872,-7.18049705028534e-05,1.9115654140478e-05,-3.0003275871276855,0.027843832969665527,-9.323580741882324
296383866000,0.0006927594658918679,0.00013230170588940382,-0.0001956577762030065,-3.040114402770996,-0.0030668973922729492,-9.343879699707031
296390867000,-0.0002791701117530465,-5.209053051657975e-05,6.842040602350608e-05,-2.999873638153076,0.02562391757965088,-9.325174331665039
296397740000,0.00095258594956249,0.0006394474185071886,-0.00021096374257467687,-3.0401368141174316,-0.0021802186965942383,-9.343147277832031
296404773000,-0.0001211881753988564,0.0006142281927168369,1.3361634046304971e-05,-3.000927448272705,0.02752864360809326,-9.322507858276367
296411671000,-0.00024221606145147234,2.68502626568079e-05,0.00010212546476395801,-3.024484634399414,0.012347936630249023,-9.3303804397583
296425553000,0.0007271657232195139,1.7252343241125345e-05,-0.0001856369781307876,-3.040696620941162,-0.0020780563354492188,-9.343053817749023
296432460000,-0.00023376100580208004,-0.00015783024718984962,7.525387627538294e-05,-2.9999709129333496,0.025515317916870117,-9.325382232666016
296439486000,-0.0006673542666248977,-0.00034420841257087886,0.0001165569483418949,-3.024142265319824,0.015640735626220703,-9.332460403442383
296446393000,0.000695265072863549,0.00017658807337284088,-0.0001909918210003525,-3.0403199195861816,-0.0032902956008911133,-9.343087196350098
296460267000,-0.0006583323702216148,-0.0002604414476081729,0.00011603532038861886,-3.024369716644287,0.015326142311096191,-9.331583023071289
296467184000,0.0007358012371696532,0.00020885921549052,-0.0001911355066113174,-3.0405545234680176,-0.003457188606262207,-9.342124938964844
296474206000,-0.00023572058125864714,1.7179263522848487e-06,7.228119648061693e-05,-3.000102996826172,0.025662899017333984,-9.324846267700195
296481074000,-0.0006281990208663046,-0.00026674839318729937,0.00011687415099004284,-3.024481773376465,0.015354752540588379,-9.331317901611328
296488129000,0.0006379947881214321,0.00018227164400741458,-0.00017411755106877536,-3.0410242080688477,-0.0024003982543945312,-9.34140396118164
296501960000,-0.0006472177337855101,-0.00033215925213880837,0.00011736799206119031,-3.024369716644287,0.015447854995727539,-9.331740379333496
296508929000,0.0006105367210693657,0.00014368927804753184,-0.00017423834651708603,-3.040895938873291,-0.002350330352783203,-9.34175968170166
296515858000,-0.00027185317594558,-0.00013070453132968396,7.457649917341769e-05,-3.000187397003174,0.024776220321655273,-9.325577735900879
296522856000,0.0009654275490902364,0.0005574634415097535,-0.0002066655724775046,-3.0401763916015625,-0.0022606849670410156,-9.343101501464844
296536681000,-0.0003733476041816175,-5.484960274770856e-05,0.00011748396354960278,-3.0249075889587402,0.013343572616577148,-9.330522537231445
296543600000,-0.000543312868103385,-0.0005511428462341428,0.00012039583816658705,-3.024898052215576,0.013369202613830566,-9.331642150878906
296550525000,0.0006576537271030247,-5.2038230933249e-06,-0.00017420023505110294,-3.0405936241149902,-0.0019310712814331055,-9.342691421508789
296557588000,-0.0002339145285077393,-0.00024565361673012376,7.363480108324438e-05,-2.9999890327453613,0.02479541301727295,-9.32598876953125
296564404000,-0.0006547371740452945,-0.0004301199805922806,0.00011249617818975821,-3.024209499359131,0.015391230583190918,-9.332884788513184
296578301000,-0.00033115988480858505,-0.0001202422718051821,7.034432201180607e-05,-2.9999375343322754,0.024745464324951172,-9.325647354125977
296585291000,0.0009184806258417666,0.0005773169687017798,-0.00021066993940621614,-3.0400261878967285,-0.0023097991943359375,-9.34304428100586
296592216000,-0.00015244135283865035,0.000556082115508616,1.2906624760944396e-05,-3.000826358795166,0.027508258819580078,-9.322504997253418
296599125000,-0.00039231780101545155,-2.968678018078208e-05,0.00011683066259138286,-3.0247926712036133,0.013324260711669922,-9.329756736755371
296613099000,0.0008077836246229708,-9.100500028580427e-05,-0.00019012484699487686,-3.040405035018921,-0.004117488861083984,-9.343491554260254
296620058000,-0.0001698871492408216,-0.00023878327920101583,6.867044430691749e-05,-2.999889850616455,0.02560412883758545,-9.325724601745605
296626951000,0.0010355260455980897,0.0005016947397962213,-0.00021507474593818188,-3.0398917198181152,-0.0021219253540039062,-9.344240188598633
296633874000,-6.984127685427666e-05,0.0005360417999327183,9.438750566914678e-06,-3.000495433807373,0.027704954147338867,-9.323267936706543
296640886000,-0.00025658158119767904,3.303965786471963e-05,9.571006376063451e-05,-3.0242035388946533,0.012590765953063965,-9.33248233795166
296647808000,-0.0005189590156078339,-0.0005591539083980024,0.00017060822574421763,-3.0244412422180176,0.01312720775604248,-9.333331108093262
296661653000,-0.0003036349080502987,0.0001283537712879479,1.6422447515651584e-05,-3.000059127807617,0.026036500930786133,-9.323869705200195
296668592000,-0.0005441509420052171,-0.0003052308748010546,0.00011329046537866816,-3.0240159034729004,0.013295650482177734,-9.3314208984375
296675579000,0.0008694512071087956,3.6084093153476715e-06,-0.0001394033315591514,-3.040282726287842,-0.0047986507415771484,-9.344381332397461
296682516000,-0.00020820148347411305,0.00021154842397663742,1.1886517313541844e-05,-3.0003504753112793,0.02848827838897705,-9.322818756103516
296696362000,0.0008952953503467143,0.00018975511193275452,-0.0001414439466316253,-3.0400936603546143,-0.003574371337890625,-9.344382286071777
296703365000,-0.00018646266835276037,0.00035355461295694113,1.2133918062318116e-05,-3.000643730163574,0.028433799743652344,-9.322687149047852
296710344000,-0.0003381463757250458,-0.0001053973101079464,9.621417848393321e-05,-3.023848295211792,0.01250767707824707,-9.331989288330078
296717217000,-0.0005751700373366475,-0.0006605933886021376,0.00017022076644934714,-3.0241384506225586,0.012992382049560547,-9.333328247070312
296724298000,0.0005469575989991426,9.389832848683e-05,-0.00017832400044426322,-3.0406713485717773,-0.0004372596740722656,-9.342440605163574
296738131000,-0.000580004183575511,-0.0003304661368019879,0.00010949962597806007,-3.0237927436828613,0.013425230979919434,-9.33166217803955
296745007000,0.0008239631424658,-8.147559128701687e-06,-0.0001428603136446327,-3.040140151977539,-0.0046634674072265625,-9.344342231750488
296751958000,-0.00024428591132164,0.00019189203158020973,8.882801921572536e-06,-3.000378370285034,0.028382062911987305,-9.322834968566895
296758921000,-0.0005306790699250996,-0.00023474122281186283,0.00010734738316386938,-3.0240068435668945,0.013589739799499512,-9.331974983215332
296772858000,-2.8742757422151044e-05,7.606015424244106e-05,5.017811054131016e-05,-2.999603748321533,0.02467668056488037,-9.325798988342285
296779704000,-0.0005372737068682909,-9.008479537442327e-05,0.00010782839672174305,-3.024381637573242,0.01624894142150879,-9.331725120544434
296786687000,0.0008587631746195257,0.0001537557109259069,-0.00013961012882646173,-3.0404860973358154,-0.0045861005783081055,-9.343561172485352
296793654000,-0.00021897962142247707,0.00030847324524074793,1.4472432667389512e-05,-3.0006766319274902,0.02839672565460205,-9.322620391845703
296800583000,-0.00048669660463929176,-0.0001772507093846798,0.00011395318870199844,-3.024289608001709,0.013512492179870605,-9.331056594848633
296814460000,3.9135840779636055e-05,8.354529563803226e-05,5.369449718273245e-05,-2.999868154525757,0.024524807929992676,-9.32599925994873
296821532000,-0.00036656140582636,-6.361454143188894e-05,9.557126759318635e-05,-3.0239455699920654,0.015401124954223633,-9.332502365112305
296828420000,-0.0007409496465697885,-0.000645643740426749,0.00018615210137795657,-3.0245792865753174,0.014135599136352539,-9.332633018493652
296835311000,0.0006038582068867981,2.938363468274474e-05,-0.00019031748524866998,-3.0403928756713867,-0.0023190975189208984,-9.343022346496582
296842369000,-0.0003303400008007884,-0.00012392204371280968,6.916535494383425e-05,-2.9997751712799072,0.025358915328979492,-9.325149536132812
296856282000,0.0005720843328163028,0.00016351757221855223,-0.00018016339163295925,-3.040722608566284,-0.0026268959045410156,-9.341423034667969
296863184000,-0.0002949574263766408,-8.031436300370842e-05,7.003204518696293e-05,-2.9998936653137207,0.024728775024414062,-9.325309753417969
296870193000,-0.0006565615185536444,-0.00031997039332054555,0.0001110100420191884,-3.024308204650879,0.015120387077331543,-9.331330299377441
296877027000,0.0006263183313421905,0.00015617511235177517,-0.00018138057203032076,-3.0408291816711426,-0.0025398731231689453,-9.341499328613281
296883957000,-0.00024420380941592157,-0.00011181339505128562,6.868757918709889e-05,-3.000065803527832,0.02464461326599121,-9.325584411621094
296897789000,-8.431286551058292e-05,0.0005692564882338047,1.075759792001918e-05,-3.000870704650879,0.027561426162719727,-9.322542190551758
296904800000,-0.00022197177167981863,-1.324442564509809e-06,9.745872375788167e-05,-3.024506092071533,0.012347936630249023,-9.331127166748047
296911701000,-0.0005879460950382054,-0.000636521028354764,0.00018613587599247694,-3.0251388549804688,0.0139845609664917,-9.332403182983398
296918611000,0.0007079512579366565,3.0011695344001055e-05,-0.00018863730656448752,-3.0404834747314453,-0.0019391775131225586,-9.343287467956543
296925681000,-0.00025964208180084825,-0.00013595420750789344,7.149216253310442e-05,-2.999908447265625,0.02563011646270752,-9.3251953125
296939583000,0.0005762719083577394,0.00016836775466799736,-0.00017914792988449335,-3.0407979488372803,-0.002410292625427246,-9.342150688171387
296946397000,-0.00030302756931632757,-8.613141835667193e-05,7.293485396075994e-05,-2.9998891353607178,0.024819254875183105,-9.325400352478027
296953320000,-0.000680614379234612,-0.0003209425194654614,0.00011426980199757963,-3.0243072509765625,0.01523900032043457,-9.331557273864746
296960416000,0.0006014646496623755,0.00015337823424488306,-0.0001780993479769677,-3.040850877761841,-0.0025196075439453125,-9.341506004333496
296967224000,-0.0002675598079804331,-0.00011960999108850956,7.052220462355763e-05,-3.0001347064971924,0.024656057357788086,-9.325556755065918
296981201000,-0.00010366077185608447,0.0005577577976509929,1.3325006875675172e-05,-3.0008373260498047,0.027626395225524902,-9.322433471679688
296988148000,-0.0003487311187200248,-3.404324525035918e-05,0.00011588541383389384,-3.0249547958374023,0.013215899467468262,-9.330314636230469
296995025000,-0.0006317576626315713,-0.0005445393617264926,0.0001342234609182924,-3.0253279209136963,0.01433873176574707,-9.330808639526367
297001940000,0.0008072104537859559,-7.444195216521621e-05,-0.00019048136891797185,-3.040402889251709,-0.00403904914855957,-9.343694686889648
297015838000,-0.0005974146770313382,-0.00039545734762214124,0.00010778243449749425,-3.0241925716400146,0.015452742576599121,-9.333083152770996
297022891000,0.0006987240049056709,0.000188142410479486,-0.00019967480329796672,-3.040025234222412,-0.002885103225708008,-9.344335556030273
297029740000,-0.0002717598981689662,1.1032621841877699e-05,6.458631833083928e-05,-2.999876022338867,0.025592684745788574,-9.325200080871582
297036673000,0.0009743014816194773,0.0006905972841195762,-0.0002146054757758975,-3.040193557739258,-0.0022841691970825195,-9.34299373626709
297043667000,-0.00010087579721584916,0.0006657090270891786,9.533650882076472e-06,-3.0009381771087646,0.02758026123046875,-9.322412490844727
297057601000,-0.0004186251317150891,-0.0005843756953254342,0.00017243751790374517,-3.0248336791992188,0.012821555137634277,-9.332390785217285
297064446000,0.0006735331262461841,0.00014115485828369856,-0.000173854612512514,-3.0409417152404785,-0.00013339519500732422,-9.342164993286133
297071598000,-0.00021862646099179983,9.824652806855738e-05,1.689714554231614e-05,-3.0003018379211426,0.025961875915527344,-9.324113845825195
297078353000,-0.0004945812979713082,-0.0003059116133954376,0.00011160468420712277,-3.024080753326416,0.013495683670043945,-9.332377433776855
297085292000,0.0008699715253897011,4.182691918686032e-05,-0.00013886780652683228,-3.040058135986328,-0.004317283630371094,-9.344767570495605
297099169000,-0.00036320334766060114,-0.0001539554650662467,9.445826435694471e-05,-3.0236172676086426,0.012610316276550293,-9.332836151123047
297106206000,-0.0006110763642936945,-0.000676257477607578,0.00016730601782910526,-3.0239853858947754,0.013109803199768066,-9.333817481994629
297113069000,0.0005012092879042029,0.0001072616723831743,-0.00017989578191190958,-3.0404672622680664,-0.00022327899932861328,-9.342378616333008
297120022000,-0.00036010905751027167,8.077934035100043e-05,1.2028707715217024e-05,-3.0000078678131104,0.02578294277191162,-9.323928833007812
297127035000,-0.0005871847970411181,-0.0003361186245456338,0.00010624279093462974,-3.024016857147217,0.01325225830078125,-9.331482887268066
297141003000,-0.00027841582777909935,0.00011417645146138966,9.681505616754293e-06,-3.0004446506500244,0.027633309364318848,-9.323209762573242
297147802000,-0.000548719719517976,-0.00029435462784022093,0.00010703309089876711,-3.023956537246704,0.013534188270568848,-9.331968307495117
297154863000,0.0008360955398529768,0.00021674309391528368,-0.00020246929489076138,-3.040541648864746,-0.0035278797149658203,-9.343152046203613
297161707000,-0.00014378527703229338,3.616444882936776e-05,6.156064046081156e-05,-2.9999608993530273,0.025759577751159668,-9.32503604888916
297168614000,-0.0005630921805277467,-0.0001953846076503396,0.00010491256398381665,-3.024423122406006,0.015495777130126953,-9.332110404968262
297182504000,-0.0003628587001003325,0.0002503386349417269,2.5051071133930236e-05,-3.0010316371917725,0.029406309127807617,-9.321901321411133
297189584000,-0.0005338285118341446,-0.00029377659666351974,0.00011129686026833951,-3.0242505073547363,0.012731432914733887,-9.331304550170898
297196413000,0.0008527328609488904,0.00020028033759444952,-0.0001979793596547097,-3.0406339168548584,-0.003525853157043457,-9.342925071716309
297203328000,-9.697245332063176e-06,3.1504434446105734e-05,4.948126297676936e-05,-2.9996283054351807,0.024737238883972168,-9.325854301452637
297217224000,0.0008518288959749043,0.0001449480769224465,-0.0001396524312440306,-3.0403895378112793,-0.0044438838958740234,-9.343995094299316
297224311000,-0.00022626342251896858,0.0003044801123905927,1.2662021617870778e-05,-3.0007424354553223,0.0284498929977417,-9.322686195373535
297231135000,-0.0004967019194737077,-0.00016928234254010022,0.00011347777035553008,-3.024247646331787,0.013579487800598145,-9.331144332885742
297238183000,0.0008907511946745217,0.0002907882444560528,-0.00019477031310088933,-3.04079532623291,-0.0034884214401245117,-9.342424392700195
297245037000,3.5886187106370926e-05,8.63685563672334e-05,5.1759183406829834e-05,-2.999929904937744,0.024553298950195312,-9.325994491577148
297258957000,0.0008964247535914183,0.00018902187002822757,-0.00013695962843485177,-3.04042911529541,-0.00443267822265625,-9.3436918258667
297265853000,-0.00018332389299757779,0.0003521559701766819,1.666341267991811e-05,-3.000692844390869,0.028487563133239746,-9.322582244873047
297272872000,-0.0003241382073611021,-0.00011109621846117079,0.00010053773439722136,-3.0239129066467285,0.012490153312683105,-9.331804275512695
297279761000,-0.0005676409346051514,-0.0006676400080323219,0.0001739448052830994,-3.024158477783203,0.013125419616699219,-9.333273887634277
297286675000,0.0005424785194918513,0.000293134682578966,-0.00023307268565986305,-3.0409750938415527,0.0007381439208984375,-9.340998649597168
297300601000,-0.0005854620249010623,-0.00021627795649692416,0.00010706811735872179,-3.0241169929504395,0.016152501106262207,-9.331789016723633
297307632000,0.0008182527380995452,7.95419909991324e-05,-0.0001413526333635673,-3.040184736251831,-0.004564762115478516,-9.343893051147461
297314488000,-0.00024212492280639708,0.00026527600130066276,9.5844516181387e-06,-3.000582695007324,0.028362035751342773,-9.322639465332031
297321503000,-0.0004977993667125702,-0.00018142868066206574,0.00010819380986504257,-3.0241827964782715,0.013446331024169922,-9.331355094909668
297335285000,-0.00017304933862760663,0.0002900869876611978,1.1404961696825922e-05,-3.000579833984375,0.02845621109008789,-9.322662353515625
297342353000,-0.00033987394999712706,-0.00014998165715951473,9.48355154832825e-05,-3.023771286010742,0.012662887573242188,-9.33234691619873
297349196000,0.0009378283284604549,0.00022056011948734522,-0.00013932732690591365,-3.0402684211730957,-0.003574371337890625,-9.344115257263184
297356254000,-3.0423339921981096e-05,0.00038644293090328574,-1.0159710654988885e-06,-3.000338077545166,0.02751624584197998,-9.323358535766602
297369997000,-0.000541448884177953,-0.0005877049989067018,0.0001729179930407554,-3.0243659019470215,0.013095498085021973,-9.333091735839844
297377010000,0.0005810513393953443,0.00014250478125177324,-0.00017575194942764938,-3.0409328937530518,-0.0004080533981323242,-9.342240333557129
297383940000,-0.00030177744338288903,0.00010890932753682137,1.545276609249413e-05,-3.0001485347747803,0.025960206985473633,-9.323917388916016
297390983000,-0.0005540737183764577,-0.00031134564778767526,0.00011309792171232402,-3.0239295959472656,0.013456463813781738,-9.331541061401367
297404777000,-0.00021061919687781483,0.00021132308756932616,1.0525571269681677e-05,-3.00046443939209,0.028455615043640137,-9.3228178024292
297411728000,-0.0003854474634863436,-0.00019524648087099195,9.333480556961149e-05,-3.0236101150512695,0.012685418128967285,-9.33285903930664
297418636000,0.0008865865529514849,0.00018751242896541953,-0.00014163900050334632,-3.0401644706726074,-0.0035382509231567383,-9.344368934631348
297425712000,-0.00018958903092425317,0.00035348726669326425,1.070568396244198e-05,-3.000764846801758,0.02843618392944336,-9.32264518737793
297439616000,-0.000702197547070682,-0.000682411773595959,0.0001842545170802623,-3.0246636867523193,0.01403045654296875,-9.3325777053833
297446465000,0.0006338409730233252,1.6108679119497538e-05,-0.00019302981672808528,-3.0402798652648926,-0.0021401643753051758,-9.343066215515137
297453396000,-0.00029925472335889935,-0.0001435248996131122,6.800351548008621e-05,-2.999830722808838,0.025336861610412598,-9.325310707092285
297460406000,-0.0007016006857156754,-0.00033016331144608557,0.00010868105164263397,-3.0241289138793945,0.015416502952575684,-9.332304000854492
297467340000,0.000692686066031456,0.0001861383207142353,-0.00019830503151752055,-3.0402917861938477,-0.003444194793701172,-9.342538833618164
