sim_time_ns,gyro_x,gyro_y,gyro_z,accel_x,accel_y,accel_z
47947904000,-8.815460023470223e-05,-0.0001967895805137232,-4.5625307620866806e-07,2.441881224513054e-05,-0.0034264782443642616,-9.80966567993164
47954953000,-0.0001589215244166553,-0.00024200980260502547,6.062338798074052e-05,-0.00019177282229065895,0.003342096460983157,-9.810428619384766
47961778000,-8.746318053454161e-05,-0.0001972717873286456,-4.3763432699961413e-07,0.00010758824646472931,-0.003141523338854313,-9.80957317352295
47968741000,-0.00019531972066033632,-0.00024177847080864012,6.357768143061548e-05,-0.00022941036149859428,0.0036587596405297518,-9.80992603302002
47982636000,-3.873719833791256e-05,-0.00021248479606583714,-2.8258891688892618e-06,-0.00022746724425815046,-0.00035476774792186916,-9.810423851013184
47989616000,-0.00019587801943998784,-0.00023745826911181211,6.310089520411566e-05,-1.6876962035894394e-05,0.004091640003025532,-9.809539794921875
47996504000,-8.834371692501009e-05,-0.0001967476273421198,-4.003725564416527e-07,0.0001338929869234562,-0.003425831440836191,-9.810036659240723
48003455000,-0.0001589241437613964,-0.00024199513427447528,6.0615937400143594e-05,-0.0001924079842865467,0.0033382705878466368,-9.810426712036133
48010486000,-8.754857117310166e-05,-0.00019730212807189673,-4.4135961729807605e-07,0.00010695657692849636,-0.003131155390292406,-9.809575080871582
48024307000,-0.00016178088844753802,-0.0002417628129478544,6.352167838485911e-05,-9.103165939450264e-05,0.003655053209513426,-9.810564994812012
48031232000,-8.791580330580473e-05,-0.00019711029017344117,-4.0782859400678717e-07,0.00015847105532884598,-0.003244793973863125,-9.809441566467285
48038210000,-0.00018967375217471272,-0.00022539358178619295,6.0724261857103556e-05,-9.066052734851837e-05,0.003527845488861203,-9.810160636901855
48045141000,-8.7880645878613e-05,-0.000196967797819525,-4.5625597522302996e-07,2.019735984504223e-05,-0.003320293501019478,-9.809837341308594
48052117000,-4.596810322254896e-05,-0.00022388488287106156,-4.790507546204026e-07,-0.00031431432580575347,-0.00021887448383495212,-9.810227394104004
48065956000,-8.781674841884524e-05,-0.0001969866716535762,-4.711575911642285e-07,3.118650056421757e-05,-0.0033169169910252094,-9.809834480285645
48072919000,-0.00016207838780246675,-0.00024145258066710085,6.346207374008372e-05,-0.00022718962281942368,0.003458600025624037,-9.810558319091797
48079874000,-8.785448153503239e-05,-0.00019711449567694217,-4.003782692052482e-07,0.0001518747303634882,-0.003247664077207446,-9.809443473815918
48086858000,-0.00018805425497703254,-0.0002304024965269491,6.121594196883962e-05,-0.00014147162437438965,0.0035261022858321667,-9.8101224899292
48100665000,-3.8763959310017526e-05,-0.00021250468853395432,-2.8370650397846475e-06,-0.00022226694272831082,-0.0003468224313110113,-9.810425758361816
48107648000,-0.00019592622993513942,-0.00023752739070914686,6.310088792815804e-05,-1.6763806343078613e-05,0.004092785529792309,-9.809537887573242
48114567000,-8.836521010380238e-05,-0.00019679685647133738,-3.9292243059207976e-07,0.00013408716768026352,-0.0034258209634572268,-9.810036659240723
48121606000,-0.00016379111912101507,-0.00023643000167794526,6.296667561400682e-05,-0.00018098019063472748,0.0034527170937508345,-9.810595512390137
48128454000,-0.0001145584974437952,-0.00020795996533706784,-2.1848084088560427e-06,2.959044650197029e-05,-0.0031734544318169355,-9.80856704711914
48142356000,-0.00016389699885621667,-0.00025875953724607825,6.34805255685933e-05,-0.00025300635024905205,0.003721031825989485,-9.810030937194824
48149346000,-8.81609448697418e-05,-0.00019709345360752195,-3.4822284078472876e-07,0.000265591312199831,-0.003247196553274989,-9.809812545776367
48156300000,-0.00018984460621140897,-0.00022545432148035616,6.073171243770048e-05,-9.177951142191887e-05,0.003524777013808489,-9.810158729553223
48170161000,-4.35429101344198e-05,-0.00020692386897280812,-4.7515379719698103e-07,-0.00021094534895382822,-0.00023028023133520037,-9.81059455871582
48177075000,-0.00018744041153695434,-0.00023095904907677323,6.1264363466762e-05,1.7705373466014862e-05,0.0038547387812286615,-9.80953311920166
48184077000,-8.793412416707724e-05,-0.0001970075973076746,-4.4135504140285775e-07,8.300645276904106e-05,-0.003308685030788183,-9.809874534606934
48191087000,-0.00019531711586751044,-0.00024179313913919032,6.355532968882471e-05,-0.000235819723457098,0.003651825711131096,-9.809924125671387
48197896000,-8.612129022367299e-05,-0.00017983790894504637,-3.6667310610027926e-07,0.00027207517996430397,-0.0034454830456525087,-9.810444831848145
48204929000,-0.00015709400759078562,-0.0002469967876095325,6.106291402829811e-05,-0.00034809624776244164,0.003341012867167592,-9.810018539428711
48218790000,-4.5186548959463835e-05,-0.00020194952958263457,-9.85459450930648e-07,-0.00015334587078541517,-0.00022524601081386209,-9.810629844665527
48225701000,-0.00018969739903695881,-0.0002478446695022285,6.122694321675226e-05,-0.00013642897829413414,0.003862061072140932,-9.809127807617188
48232651000,-0.00011484872084110975,-0.00020786034292541444,-2.1289267806423595e-06,0.00011673127301037312,-0.003235389944165945,-9.809406280517578
48239633000,-0.0001924609241541475,-0.000242192079895176,6.076880163163878e-05,-0.0001225851010531187,0.003463423578068614,-9.81063175201416
48246518000,-8.803258242551237e-05,-0.00019696461095009,-4.115519232072984e-07,0.00012073805555701256,-0.003334921086207032,-9.810205459594727
48260429000,-0.00018918776186183095,-0.0002259123866679147,6.082111212890595e-05,0.0001725819893181324,0.003848286345601082,-9.809940338134766
48267365000,-8.784346573520452e-05,-0.00019700656412169337,-4.6370709583243297e-07,3.115762956440449e-05,-0.003316194750368595,-9.809833526611328
48274371000,-0.0001637487148400396,-0.000236498104641214,6.29592250334099e-05,-0.00017637130804359913,0.0034603921230882406,-9.81059455871582
48281273000,-0.00011452393664512783,-0.00020798407786060125,-2.192259216826642e-06,2.9995106160640717e-05,-0.0031731869094073772,-9.80856704711914
48295122000,-8.812581654638052e-05,-0.00019695096125360578,-3.8919966982575716e-07,0.00017202598974108696,-0.0033309864811599255,-9.8102445602417
48302139000,-3.88226326322183e-05,-0.00021251515136100352,-2.8221636512171244e-06,-0.00022353726672008634,-0.0003499307786114514,-9.8104248046875
48309029000,-0.00019587017595767975,-0.0002375022741034627,6.311207107501104e-05,-1.6678590327501297e-05,0.004092071671038866,-9.809538841247559
48315973000,-8.838932262733579e-05,-0.00019683143182191998,-3.9664797668592655e-07,0.00013378029689192772,-0.0034260202664881945,-9.810035705566406
48322949000,-0.00016367377247661352,-0.00023640906147193164,6.29666683380492e-05,-0.00018078414723277092,0.0034522367641329765,-9.810595512390137
48336862000,-7.161503890529275e-05,-0.0001907379919430241,-3.1570857572660316e-06,3.8577127270400524e-07,-0.00023078281083144248,-9.811037063598633
48343786000,-0.00016380110173486173,-0.0002587878261692822,6.343582208501175e-05,-0.0003043711185455322,0.0037165649700909853,-9.809992790222168
48350716000,-8.807556878309697e-05,-0.00019706308376044035,-3.593987116801145e-07,0.00026574661023914814,-0.003245886182412505,-9.809812545776367
48357756000,-0.00018967375217471272,-0.00022539358178619295,6.071681127650663e-05,-9.142560884356499e-05,0.0035243274178355932,-9.810157775878906
48364580000,-8.78486898727715e-05,-0.00019697722746059299,-4.748826825107244e-07,1.987069845199585e-05,-0.0033210315741598606,-9.80983829498291
48378469000,-0.00018925167387351394,-0.00022589349828194827,6.082111212890595e-05,0.0001732553355395794,0.0038491939194500446,-9.809940338134766
48385465000,-8.782197255641222e-05,-0.0001969573349924758,-4.6743195980525343e-07,3.13029158860445e-05,-0.003305547870695591,-9.809833526611328
48392460000,-0.0001601115509402007,-0.0002579181455075741,6.239646609174088e-05,-0.0003405890893191099,0.003380228066816926,-9.810188293457031
48399389000,-8.537400572095066e-05,-0.00019201032409910113,-1.737712295835081e-06,0.0003025811165571213,-0.0032462719827890396,-9.809852600097656
48413237000,-8.834633626975119e-05,-0.00019673295901156962,-4.078229949300294e-07,0.00012039439752697945,-0.0034350494388490915,-9.810040473937988
48420260000,-3.879590076394379e-05,-0.0002124952443409711,-2.8258889415155863e-06,-0.00022739722044207156,-0.00035222229780629277,-9.8104248046875
48427165000,-0.00016512838192284107,-0.000254059792496264,6.298884545685723e-05,-0.00011117104440927505,0.003908103797584772,-9.809805870056152
48434064000,-0.00011876653297804296,-0.00018045108299702406,-2.6970036515194806e-07,0.0003162156790494919,-0.003062788862735033,-9.8095064163208
48441139000,-0.00015766342403367162,-0.00024668959667906165,6.10927163506858e-05,-0.00032451609149575233,0.003160805907100439,-9.810651779174805
48454968000,-4.5789434807375073e-05,-0.00022386816272046417,-5.051282414569869e-07,-0.00035840494092553854,-0.00021936986013315618,-9.810187339782715
48461848000,-0.00018924643518403172,-0.00022592283494304866,6.083228799980134e-05,0.00017312821000814438,0.00385141558945179,-9.809940338134766
48468800000,-8.781150972936302e-05,-0.00019701600831467658,-4.6743264192627976e-07,3.113690763711929e-05,-0.003317489055916667,-9.809834480285645
48475786000,-0.00016605391283519566,-0.00025345286121591926,6.295905041042715e-05,-0.00027985568158328533,0.003471904434263706,-9.810229301452637
48489737000,-0.00019207487639505416,-0.0002423200203338638,6.0712918639183044e-05,-0.00019459612667560577,0.003528258763253689,-9.809792518615723
48496615000,-8.483047713525593e-05,-0.00019675699877552688,-1.097015001505497e-06,0.00011499272659420967,-0.0033816704526543617,-9.810206413269043
48503560000,-7.82015995355323e-05,-0.00020235618285369128,-8.810325198282953e-07,-0.00016256397066172212,1.4179058780428022e-05,-9.80999755859375
48510570000,-0.00015714019536972046,-0.0002472471969667822,6.117467273725197e-05,-0.00010931771248579025,0.003482646541669965,-9.810396194458008
48517404000,-8.75297118909657e-05,-0.00019723821606021374,-4.152819883529446e-07,0.00016392418183386326,-0.0031370886135846376,-9.809609413146973
48531380000,-0.0001824349456001073,-0.00026378995971754193,5.8920788433169946e-05,-0.0002636467106640339,0.003702206304296851,-9.808761596679688
48538609000,-0.00012033316306769848,-0.00017556895909365267,-7.278532052623632e-07,0.00045366142876446247,-0.0029642763547599316,-9.810381889343262
48545315000,-0.00016189433517865837,-0.00025776674738153815,6.271311576711014e-05,-0.0004714925307780504,0.0032291198149323463,-9.810412406921387
48552234000,-8.704399806447327e-05,-0.00019707594765350223,-5.531177862394543e-07,0.0002521066926419735,-0.003223226871341467,-9.809816360473633
48566102000,-8.782197255641222e-05,-0.0001969573349924758,-4.637066695067915e-07,2.0470237359404564e-05,-0.00332047650590539,-9.80983829498291
48573190000,-4.356962745077908e-05,-0.00020694377599284053,-4.788792011822807e-07,-0.0002109092311002314,-0.00023018890351522714,-9.810595512390137
48580073000,-0.00018982001347467303,-0.00024783622939139605,6.126419611973688e-05,-8.528633043169975e-05,0.0038666347973048687,-9.809165000915527
48586992000,-8.81844898685813e-05,-0.00019696142408065498,-3.742983949450718e-07,0.00018753833137452602,-0.0033162818290293217,-9.810243606567383
48593981000,-0.00018808621098287404,-0.00023039306688588113,6.123084313003346e-05,-0.0001447605900466442,0.003521665697917342,-9.8101224899292
48607912000,-0.00016448728274554014,-0.0002583349996712059,6.346936424961314e-05,-0.0003275824710726738,0.003435069229453802,-9.810190200805664
48614851000,-7.618448580615222e-05,-0.00019635075295809656,-2.877731503758696e-06,0.00022132578305900097,-0.003452945500612259,-9.809809684753418
48621795000,-7.068368722684681e-05,-0.00019120765500701964,-3.2315999760612613e-06,-4.8263264034176245e-05,2.622504143801052e-05,-9.810198783874512
48628697000,-0.0001653514918871224,-0.00025382713647559285,6.295159255387262e-05,-0.00024290988221764565,0.0037317536771297455,-9.810029983520508
48635643000,-8.797970076557249e-05,-0.00019709141633938998,-3.817511355919123e-07,0.0002153587993234396,-0.0032488168217241764,-9.809775352478027
48649510000,-0.00016167134162969887,-0.00024169788230210543,6.345089786918834e-05,-0.00020430516451597214,0.0036011780612170696,-9.810193061828613
48656543000,-8.78010323503986e-05,-0.00019707469618879259,-4.1527923144712986e-07,0.000157293863594532,-0.0032429592683911324,-9.809444427490234
48663414000,-0.00015727264690212905,-0.00024701349320821464,6.111879338277504e-05,-0.0002358581405133009,0.0033432890195399523,-9.810389518737793
48670444000,-0.00012006708129774779,-0.00017570315685588866,-8.24713197289384e-07,0.0003037762362509966,-0.002951869508251548,-9.809383392333984
48684240000,-8.813686145003885e-05,-0.00019705887825693935,-3.6684903648165346e-07,0.0002498035319149494,-0.003258985932916403,-9.809816360473633
48691306000,-4.041017382405698e-05,-0.00020751566626131535,-3.328744242026005e-06,-0.0001700579305179417,-0.0003474065742921084,-9.810460090637207
48698135000,-0.00019581150263547897,-0.00023749182582832873,6.307481817202643e-05,-6.781984120607376e-05,0.004087895154953003,-9.809500694274902
48705269000,-8.833064930513501e-05,-0.00019682096899487078,-4.0782396126815e-07,0.0001341588795185089,-0.0034243487752974033,-9.810037612915039
48719048000,-8.913878991734236e-05,-0.0001922879891935736,-9.255880399905436e-07,0.00020908121950924397,-0.0031371447257697582,-9.809649467468262
48726053000,-0.00019687271560542285,-0.00023680311278440058,6.304129783529788e-05,-0.00022978149354457855,0.003655978012830019,-9.809922218322754
48733014000,-8.83384927874431e-05,-0.0001967769640032202,-3.9292231690524204e-07,0.00011809868738055229,-0.0034368473570793867,-9.810040473937988
48739868000,-3.873719833791256e-05,-0.00021248479606583714,-2.8221638785908e-06,-0.00022733226069249213,-0.0003530792018864304,-9.810425758361816
48746860000,-0.0001651179336477071,-0.00025411846581846476,6.298884545685723e-05,-0.00011154729872941971,0.003908386453986168,-9.809804916381836
48760694000,-0.00015768493176437914,-0.00024673884036019444,6.109644164098427e-05,-0.0003247065469622612,0.0031612878665328026,-9.810651779174805
48767592000,-8.917857485357672e-05,-0.0001922345400089398,-9.255873010260984e-07,0.0002028769813477993,-0.003141243476420641,-9.809650421142578
48774588000,-4.5786844566464424e-05,-0.00022388283105101436,-5.051284119872435e-07,-0.0003589521220419556,-0.00021937057317700237,-9.810187339782715
48781485000,-0.0001940280053531751,-0.00022032737615518272,6.317184306681156e-05,0.00018478650599718094,0.003965205978602171,-9.81010913848877
48795364000,-0.00015732870087958872,-0.00024703863891772926,6.111879338277504e-05,-0.00024261092767119408,0.003340428927913308,-9.810391426086426
48802331000,-8.758838521316648e-05,-0.00019724867888726294,-4.152818746661069e-07,0.00015901378355920315,-0.003137997817248106,-9.809611320495605
48809297000,-0.00019207487639505416,-0.0002423200203338638,6.072036921977997e-05,-0.0001904189120978117,0.0035436837933957577,-9.809793472290039
48816207000,-8.808865095488727e-05,-0.00019698974210768938,-4.078266613305459e-07,0.00012467405758798122,-0.0033274509478360415,-9.81020736694336
48830073000,-0.00018922233721241355,-0.0002258882886962965,6.08173904765863e-05,0.00017283018678426743,0.00384878390468657,-9.809940338134766
48837049000,-8.787542174104601e-05,-0.0001969971344806254,-4.6743218717892887e-07,3.106612712144852e-05,-0.003316278103739023,-9.809833526611328
48844045000,-4.755568807013333e-05,-0.0002188853977713734,-9.930815849656938e-07,-0.0002633111726026982,-0.00021735092741437256,-9.810263633728027
48850901000,-0.00019393739057704806,-0.00022032635752111673,6.313459016382694e-05,0.00013370485976338387,0.003959886729717255,-9.810070037841797
48865223000,-0.00015733393956907094,-0.00024700930225662887,6.111879338277504e-05,-0.00023503229022026062,0.003219239180907607,-9.810376167297363
48872115000,-4.278143751434982e-05,-0.00019472451822366565,-9.892560228763614e-06,2.660835161805153e-05,-0.0038807359524071217,-9.809595108032227
48878984000,-8.372751472052187e-05,-0.00021482967713382095,1.44343630381627e-06,-0.00015087652718648314,0.0008127322071231902,-9.809815406799316
48885932000,-0.00019717395480256528,-0.00023681140737608075,6.31977673037909e-05,6.730388849973679e-05,0.0036999466829001904,-9.810166358947754
48892942000,-8.839716610964388e-05,-0.0001967874268302694,-4.07823364412252e-07,0.0001177680678665638,-0.0034455640707165003,-9.81003475189209
48899788000,-0.00015886285109445453,-0.00024199933977797627,6.060476152924821e-05,-0.00019271834753453732,0.0033377823419868946,-9.810425758361816
48913679000,-0.00016481149941682816,-0.0002580446598585695,6.343956192722544e-05,-0.0004114441107958555,0.003295107977464795,-9.810453414916992
48920636000,-8.570123463869095e-05,-0.00018015655223280191,-3.6295276117925823e-07,0.0003526106011122465,-0.0032712463289499283,-9.810181617736816
48927649000,-3.843074955511838e-05,-0.0002125058526871726,-2.9078469196974766e-06,-0.00032541793189011514,-0.00034460474853403866,-9.810054779052734
48934512000,-0.00019587017595767975,-0.0002375022741034627,6.310089520411566e-05,-1.560058444738388e-05,0.004098489414900541,-9.809540748596191
48948399000,-0.0001588895684108138,-0.00024201923224609345,6.060476152924821e-05,-0.00019264733418822289,0.003337060334160924,-9.810425758361816
48955363000,-9.232496086042374e-05,-0.0001917359622893855,1.9019249748453149e-06,0.00011872593313455582,-0.003026370657607913,-9.80974292755127
48962341000,-0.00018838168762158602,-0.00023026407870929688,6.1238300986588e-05,-0.000144145917147398,0.003422216046601534,-9.809954643249512
48969246000,-8.797130431048572e-05,-0.000196968816453591,-4.450797916888405e-07,6.704707629978657e-05,-0.003321352181956172,-9.809876441955566
48976210000,-3.8763959310017526e-05,-0.00021250468853395432,-2.818438588292338e-06,-0.00022233056370168924,-0.0003462772583588958,-9.810426712036133
48990179000,-8.830915612634271e-05,-0.00019677173986565322,-4.0037295434558473e-07,0.0001339484006166458,-0.003425633069127798,-9.810036659240723
48997019000,-0.0001621129340492189,-0.00024142846814356744,6.347324961097911e-05,-0.00023186812177300453,0.0034508737735450268,-9.81055736541748
49003972000,-8.783036901149899e-05,-0.00019707992032635957,-4.0782859400678717e-07,0.00015129917301237583,-0.003248614491894841,-9.809444427490234
49010935000,-7.118655776139349e-05,-0.00019093404989689589,-3.227869910915615e-06,-7.45365978218615e-05,-0.00016026772209443152,-9.810196876525879
49017932000,-0.00016375028644688427,-0.0002587333437986672,6.344699795590714e-05,-0.0003001932054758072,0.0037237084470689297,-9.8099946975708
49031773000,-0.00018976702995132655,-0.0002253799611935392,6.073171243770048e-05,-9.117508307099342e-05,0.003524885745719075,-9.810157775878906
49038737000,-8.786492981016636e-05,-0.0001970558223547414,-4.674328692999552e-07,1.9283732399344444e-05,-0.003321330063045025,-9.809839248657227
49045736000,-4.348685615696013e-05,-0.00020689873781520873,-4.7515374035356217e-07,-0.00021016865503042936,-0.00023082846018951386,-9.81059455871582
49052703000,-0.00018978278967551887,-0.00024787505390122533,6.12530202488415e-05,-8.608167991042137e-05,0.0038663847371935844,-9.809165000915527
49066493000,-0.0001897350448416546,-0.00022538939083460718,6.072798714740202e-05,-9.386800229549408e-05,0.0035244980826973915,-9.810160636901855
49073485000,-9.269155270885676e-05,-0.0001913775340653956,1.8758531723506167e-06,3.153551369905472e-05,-0.003206692636013031,-9.810005187988281
49080368000,-0.00015757852816022933,-0.0002468258608132601,6.113741983426735e-05,-0.0002458405215293169,0.0032337158918380737,-9.810223579406738
49087328000,-8.755644375924021e-05,-0.00019725810852833092,-4.3390852511038247e-07,0.00015447568148374557,-0.0031425796914845705,-9.809612274169922
49094255000,-4.518392961472273e-05,-0.00020196419791318476,-9.891848549159477e-07,-0.0001538359501864761,-0.00022554835595656186,-9.810629844665527
49108245000,-0.00011491788609419018,-0.00020781213243026286,-2.1252008082228713e-06,0.0001168444287031889,-0.0032357953023165464,-9.809406280517578
49115081000,-0.00019090008572675288,-0.0002472114865668118,6.126792868599296e-05,-0.0001735924743115902,0.0034609404392540455,-9.81059455871582
49122037000,-8.813105523586273e-05,-0.00019692161004059017,-3.854740384667821e-07,0.00017215358093380928,-0.003330929670482874,-9.8102445602417
49128972000,-3.871048102155328e-05,-0.00021246488904580474,-2.8184383609186625e-06,-0.00022338717826642096,-0.0003504768246784806,-9.810423851013184
49142892000,-8.83599859662354e-05,-0.00019682619313243777,-4.078239328464406e-07,0.00013370858505368233,-0.003425795119255781,-9.810036659240723
49149798000,-0.00015886547043919563,-0.00024198467144742608,6.0619662690442055e-05,-0.0001919225323945284,0.003338146023452282,-9.810425758361816
49156787000,-9.392037463840097e-05,-0.00018669248674996197,1.3953452935311361e-06,0.0001695249229669571,-0.0030258502811193466,-9.809778213500977
49163690000,-0.0001867077371571213,-0.0002746323589235544,5.935282024438493e-05,-0.0004640440456569195,0.0033263093791902065,-9.808978080749512
49177629000,-7.830008689779788e-05,-0.00020231319649610668,-9.033835226546216e-07,-0.0002179799776058644,-4.477091715671122e-05,-9.809955596923828
49184510000,-0.00015714281471446157,-0.00024723249953240156,6.117839802755043e-05,-0.00011074496433138847,0.0034820097498595715,-9.810396194458008
49191519000,-8.758052717894316e-05,-0.00019729269843082875,-4.301835474507243e-07,0.000163207296282053,-0.0031372117809951305,-9.809609413146973
49198424000,-7.836660370230675e-05,-0.0002022796543315053,-8.661299375489762e-07,-0.00016218148812185973,-2.9734772397205234e-05,-9.809996604919434
49205462000,-0.00016345323820132762,-0.0002366270637139678,6.301509711192921e-05,-4.8479996621608734e-05,0.003595657180994749,-9.810599327087402
49219284000,-0.00015769331366755068,-0.00024686145479790866,6.118212331784889e-05,-0.00016123568639159203,0.0032722826581448317,-9.811229705810547
49226245000,-0.00011848472058773041,-0.00018067330529447645,-3.144072593386227e-07,0.00024954346008598804,-0.002960385987535119,-9.809344291687012
49233159000,-0.00016000319737941027,-0.00026362022617831826,6.109627429395914e-05,-0.00042327726259827614,0.003178466111421585,-9.810286521911621
49240180000,-8.774294110480696e-05,-0.00019723082368727773,-3.5567649092627107e-07,0.00025663734413683414,-0.0031496910378336906,-9.809983253479004
49254023000,-0.00015929609071463346,-0.00026419045752845705,6.110744288889691e-05,-0.00031909067183732986,0.003499664831906557,-9.80965805053711
49260953000,-8.941591659095138e-05,-0.0001922617229865864,-8.622567975180573e-07,0.0003195516765117645,-0.0031381496228277683,-9.810018539428711
49267895000,-0.0001967847056221217,-0.0002367874258197844,6.30487484158948e-05,-0.00023038964718580246,0.003650970757007599,-9.809920310974121
49274889000,-8.845845877658576e-05,-0.0001967832213267684,-4.040978183184052e-07,0.0001176963560283184,-0.0034361323341727257,-9.810040473937988
49288748000,-8.748727850615978e-05,-0.00019730634812731296,-4.1528286942593695e-07,0.00015794462524354458,-0.0031381056178361177,-9.809611320495605
49295647000,-7.839857426006347e-05,-0.0002022702101385221,-8.735803476156434e-07,-0.0001619761169422418,-2.9152637580409646e-05,-9.809996604919434
49302582000,-0.0001570841413922608,-0.00024722202215343714,6.117467273725197e-05,-0.00011088233441114426,0.003479504957795143,-9.810395240783691
49309544000,-0.00011834324686788023,-0.00018061778973788023,-3.2185778309212765e-07,0.00025817775167524815,-0.0029529763851314783,-9.809344291687012
49323486000,-8.93891992745921e-05,-0.00019224181596655399,-8.585313935327576e-07,0.00030772946774959564,-0.003148249816149473,-9.81002140045166
49330409000,-7.824138447176665e-05,-0.00020230274822097272,-9.071088697965024e-07,-0.00021449304767884314,-3.7823832826688886e-05,-9.809955596923828
49337297000,-0.00015714281471446157,-0.00024723249953240156,6.11709474469535e-05,-0.00011090515181422234,0.0034823284950107336,-9.810396194458008
49344322000,-8.752710709813982e-05,-0.00019725288439076394,-4.190074491816631e-07,0.00016393675468862057,-0.003136832034215331,-9.809609413146973
49351202000,-0.00016605653217993677,-0.00025343819288536906,6.295905041042715e-05,-0.0002737683244049549,0.003474694211035967,-9.810226440429688
49365095000,-0.00019523694936651736,-0.000241733476286754,6.354042852763087e-05,-0.0002848748117685318,0.0036469013430178165,-9.809885025024414
49372116000,-8.60919535625726e-05,-0.00017983268480747938,-3.666731629436981e-07,0.0002717520110309124,-0.00344449863769114,-9.810445785522461
49379035000,-3.860940341837704e-05,-0.00021252254373393953,-2.8817694328608923e-06,-0.0003319455136079341,-0.0003473550605122,-9.81005573272705
49385919000,-0.0001959392975550145,-0.0002374540490563959,6.310462049441412e-05,-1.5729572623968124e-05,0.0040965150110423565,-9.809540748596191
49399871000,-0.00015727264690212905,-0.00024701349320821464,6.111879338277504e-05,-0.0002432467881590128,0.003335339017212391,-9.810388565063477
49406835000,-8.755119051784277e-05,-0.00019728745974134654,-4.227329952755099e-07,0.00015845336019992828,-0.003138134256005287,-9.809612274169922
49413748000,-7.353417458944023e-05,-0.00020782067440450191,-3.235491476516472e-06,-0.00017356249736621976,-0.00014440987433772534,-9.809829711914062
49420681000,-0.00016398500883951783,-0.000258775195106864,6.352522905217484e-05,-0.00019587529823184013,0.0037171647418290377,-9.810361862182617
49427728000,-0.00012052491365466267,-0.0001755123375914991,-7.613795673933055e-07,0.0004101747181266546,-0.0030654906295239925,-9.809582710266113
49441636000,-8.752185385674238e-05,-0.00019728223560377955,-4.2273305211892875e-07,0.00015157670713961124,-0.0031418746802955866,-9.809614181518555
49448497000,-4.7614361392334104e-05,-0.00021889587515033782,-9.781803100850084e-07,-0.0002571001532487571,-0.00021311781893018633,-9.810263633728027
49455468000,-0.0001915542670758441,-0.0002428629231872037,6.0776237660320476e-05,1.8679071217775345e-05,0.0038562389090657234,-9.809534072875977
49462692000,-8.809387509245425e-05,-0.000196960405446589,-4.0410105839328025e-07,0.00013615493662655354,-0.0033189626410603523,-9.810203552246094
49469317000,-0.00019424779748078436,-0.00024167819356080145,6.330946052912623e-05,-0.00023964978754520416,0.003630185266956687,-9.80992317199707
49483265000,-0.00015708617866039276,-0.00024704079260118306,6.106291402829811e-05,-0.0003469856455922127,0.0033375918865203857,-9.810018539428711
49490283000,-8.552210056222975e-05,-0.00019712248467840254,-8.325207545567537e-07,0.00015387451276183128,-0.003167042974382639,-9.809614181518555
49497115000,-7.587227446492761e-05,-0.0001853668800322339,-8.659591230752994e-07,-5.443471309263259e-05,-9.989825230150018e-06,-9.810364723205566
49504073000,-0.00016170856542885303,-0.00024165910144802183,6.346952432068065e-05,-0.0002026124857366085,0.0036035007797181606,-9.810193061828613
49517960000,-0.0001572192122694105,-0.0002469737082719803,6.111134280217811e-05,-0.00023558875545859337,0.0033425940200686455,-9.810388565063477
49524989000,-8.913356577977538e-05,-0.00019231732585467398,-9.293136713495187e-07,0.00020897295325994492,-0.0031360588036477566,-9.809648513793945
49531838000,-7.827072113286704e-05,-0.0002023079723585397,-9.182846838484693e-07,-0.00021306544658727944,-3.36817029165104e-05,-9.809958457946777
49538835000,-0.00015707890270277858,-0.00024725141702219844,6.115604628575966e-05,-0.00011071283370256424,0.0034817573614418507,-9.810396194458008
49552666000,-0.00019687793974298984,-0.0002367737761233002,6.307110015768558e-05,-0.0001785452477633953,0.003658220637589693,-9.809961318969727
49559903000,-8.83384927874431e-05,-0.0001967769640032202,-4.0037289750216587e-07,0.00011544115841388702,-0.0033843149431049824,-9.810038566589355
49566629000,-0.00013814889825880527,-0.0002452690387144685,5.638016955344938e-05,-0.000294702360406518,0.00298712938092649,-9.81037712097168
49573727000,-9.549436799716204e-05,-0.00020418287022039294,1.4137913240119815e-06,0.0001547718420624733,-0.0026736478321254253,-9.809462547302246
49587582000,-0.0001570919994264841,-0.00024717801716178656,6.116349686635658e-05,-0.0001149764284491539,0.003473286982625723,-9.810394287109375
49594777000,-8.752445864956826e-05,-0.00019726756727322936,-4.190076197119197e-07,0.00016287807375192642,-0.003137033199891448,-9.809609413146973
49601404000,-0.00019447946397121996,-0.00021983266924507916,6.307500007096678e-05,-7.500266656279564e-05,0.003647293196991086,-9.810327529907227
49608600000,-8.818393689580262e-05,-0.0001967948192032054,-4.6370359996217303e-07,1.2082047760486603e-05,-0.00335097499191761,-9.80967903137207
49615467000,-1.2842589057981968e-05,-0.0002106835599988699,-8.454880116914865e-06,-0.0003034966648556292,-0.0007860223413445055,-9.810408592224121
49629391000,-8.86339257704094e-05,-0.0001966480049304664,-3.891945539180597e-07,0.00014272984117269516,-0.0035210379865020514,-9.809868812561035
49636374000,-0.0001881716016214341,-0.0002304234221810475,6.121594196883962e-05,-0.00015239580534398556,0.0035159895196557045,-9.810124397277832
49643270000,-8.7998021626845e-05,-0.0001969887234736234,-4.3390403448029247e-07,7.07490835338831e-05,-0.0033172036055475473,-9.80987548828125
49650162000,-4.591204924508929e-05,-0.00022385975171346217,-4.790506977769837e-07,-0.00031432509422302246,-0.00022089641424827278,-9.810226440429688
49657254000,-0.00018919038120657206,-0.0002258977183373645,6.082111576688476e-05,0.00017309654504060745,0.003848663065582514,-9.809940338134766
49671011000,-0.00016369526565540582,-0.00023645830515306443,6.296294304775074e-05,-0.00017644185572862625,0.0034601481165736914,-9.810595512390137
49678005000,-0.00011450244346633554,-0.00020793484873138368,-2.1848081814823672e-06,3.0017225071787834e-05,-0.003172581549733877,-9.808568000793457
49684870000,-0.00016003570635803044,-0.0002637773868627846,6.118567398516461e-05,-0.00026456406340003014,0.003284301608800888,-9.810861587524414
49692060000,-0.00012022684677504003,-0.00017565595044288784,-7.65107472489035e-07,0.000403029378503561,-0.0029548194725066423,-9.809752464294434
49705901000,-0.00016179104568436742,-0.00023695130948908627,6.273569306358695e-05,8.918065577745438e-05,0.0038090432062745094,-9.810376167297363
49712802000,-0.00010973283497150987,-0.00020768996910192072,-3.157124410790857e-06,3.290991298854351e-05,-0.0032208235934376717,-9.80856704711914
49719760000,-0.00018988701049238443,-0.0002253862185170874,6.0765243688365445e-05,-4.898756742477417e-06,0.003532673232257366,-9.810999870300293
49726791000,-8.793672895990312e-05,-0.0001969929289771244,-4.711572216820059e-07,1.9390136003494263e-05,-0.0033074254170060158,-9.809836387634277
49740613000,-0.00019609910668805242,-0.0002374068571953103,6.314187339739874e-05,4.266249015927315e-05,0.004060689359903336,-9.80970573425293
49747517000,-8.8335873442702e-05,-0.0001967916323337704,-4.0037306803242245e-07,0.0001320289447903633,-0.003429377917200327,-9.81003475189209
49754405000,-0.00015732349129393697,-0.00024706797557882965,6.111506809247658e-05,-0.00024344446137547493,0.003336105728521943,-9.810389518737793
49761439000,-8.755644375924021e-05,-0.00019725810852833092,-4.11556783319611e-07,0.00015874370001256466,-0.0031378488056361675,-9.809611320495605
49775349000,-0.0001570841413922608,-0.00024722202215343714,6.11709474469535e-05,-0.00011050584726035595,0.003480704268440604,-9.810394287109375
49782292000,-8.759100455790758e-05,-0.00019723401055671275,-4.115564138373884e-07,0.00016354885883629322,-0.003136605955660343,-9.809610366821289
49789159000,-0.00019690465705934912,-0.0002367936831433326,6.305619899649173e-05,-0.00017924048006534576,0.0036581766325980425,-9.809961318969727
49796127000,-8.834111213218421e-05,-0.00019676229567267,-4.003727269719093e-07,0.00011774711310863495,-0.003438301384449005,-9.810039520263672
49803049000,-4.034889570903033e-05,-0.00020751988631673157,-3.3250191791012185e-06,-0.0001764397311490029,-0.00035086943535134196,-9.810462951660156
49816872000,-8.848779543768615e-05,-0.00019678844546433538,-3.705701487888291e-07,0.00018486659973859787,-0.003420609049499035,-9.810075759887695
49823954000,-0.00018803276179824024,-0.00023035328194964677,6.121966725913808e-05,-0.00014841603115200996,0.003517359495162964,-9.8101224899292
49830773000,-8.794196764938533e-05,-0.000196963592316024,-4.4507984853225935e-07,7.02948309481144e-05,-0.0033174024429172277,-9.809877395629883
49844689000,-8.75857804203406e-05,-0.00019726334721781313,-4.227326257932873e-07,0.00015875487588346004,-0.0031383419409394264,-9.809611320495605
49851626000,-7.83105642767623e-05,-0.00020225450862199068,-8.773058084443619e-07,-0.0001623726129764691,-3.0666815291624516e-05,-9.809995651245117
49858571000,-0.00015711347805336118,-0.00024722726084291935,6.11709474469535e-05,-0.00011083809658885002,0.0034806535113602877,-9.810396194458008
49865468000,-0.00011842344247270375,-0.00018067749624606222,-3.255834144511027e-07,0.000257931649684906,-0.002952446462586522,-9.809343338012695
49872519000,-0.00016005925135686994,-0.0002636453718878329,6.110745016485453e-05,-0.000423146178945899,0.003179299645125866,-9.810286521911621
49886338000,-7.827334047760814e-05,-0.0002022933040279895,-9.03383352124365e-07,-0.0002144638856407255,-3.797207318712026e-05,-9.809955596923828
49893331000,-0.00015714019536972046,-0.0002472471969667822,6.117467273725197e-05,-0.00011059618555009365,0.003482281230390072,-9.810396194458008
49900199000,-8.758838521316648e-05,-0.00019724867888726294,-4.0783129406918306e-07,0.00016339891590178013,-0.0031366823241114616,-9.809610366821289
49907203000,-0.00016605653217993677,-0.00025343819288536906,6.297022628132254e-05,-0.0002731853164732456,0.0034747698809951544,-9.810224533081055
49914124000,-8.966834866441786e-05,-0.00019203427655156702,-8.771545481067733e-07,0.0002563025336712599,-0.0032568671740591526,-9.809812545776367
49927987000,-8.608933421783149e-05,-0.00017984735313802958,-3.703986237724166e-07,0.0002718856558203697,-0.0034441910684108734,-9.810446739196777
49934898000,-3.86041501769796e-05,-0.00021255190949887037,-2.8929455311299535e-06,-0.00033206900116056204,-0.00034762980067171156,-9.81005573272705
49941916000,-0.00019584344408940524,-0.00023748239618726075,6.30971699138172e-05,-1.5599187463521957e-05,0.004096240736544132,-9.809540748596191
49948798000,-8.833326864987612e-05,-0.0001968063006643206,-4.0037323856267903e-07,0.00013369647786021233,-0.0034252607729285955,-9.810036659240723
49962687000,-8.919746323954314e-05,-0.0001922984520206228,-9.144119985649013e-07,0.00020932895131409168,-0.003135488834232092,-9.809648513793945
49969625000,-7.671250205021352e-05,-0.00020731266704387963,-3.9307789734266407e-07,-0.00026419939240440726,-3.5839519114233553e-05,-9.809921264648438
49976615000,-0.00015717739006504416,-0.0002472084015607834,6.12007497693412e-05,-5.951244384050369e-05,0.0034855487756431103,-9.810433387756348
49983527000,-8.752445864956826e-05,-0.00019726756727322936,-4.190076197119197e-07,0.00016312254592776299,-0.003139120526611805,-9.809608459472656
49990610000,-0.00019696597883012146,-0.00023678949219174683,6.305992428679019e-05,-0.00017869658768177032,0.0036594728007912636,-9.809962272644043
50004390000,-4.038607585243881e-05,-0.0002074811200145632,-3.328743787278654e-06,-0.00017630838556215167,-0.0003503034240566194,-9.810462951660156
50011316000,-0.00019416524446569383,-0.00024248081899713725,6.356649828376248e-05,-0.00011854758486151695,0.0040856595151126385,-9.809463500976562
50018235000,-8.839454676490277e-05,-0.0001968020951608196,-3.7802121255481325e-07,0.0001848961692303419,-0.0034206504933536053,-9.810075759887695
50025224000,-0.00018808359163813293,-0.00023040773521643132,6.121221667854115e-05,-0.0001486474648118019,0.0035184407606720924,-9.810121536254883
50039120000,-0.00015730198356322944,-0.0002470187610015273,6.111506809247658e-05,-0.00023868889547884464,0.0033429772593080997,-9.81039047241211
50046033000,-8.752710709813982e-05,-0.00019725288439076394,-4.2645802977858693e-07,0.00015863217413425446,-0.0031387414783239365,-9.809611320495605
50052951000,-7.836923759896308e-05,-0.00020226497144903988,-8.661297670187196e-07,-0.0001622185081942007,-2.9265684133861214e-05,-9.809996604919434
50059964000,-0.00015706004342064261,-0.000247187475906685,6.11709474469535e-05,-0.00011071865446865559,0.0034798767883330584,-9.810396194458008
50066856000,-0.00011836214980576187,-0.00018068171630147845,-3.218583799480257e-07,0.00025758659467101097,-0.002953097689896822,-9.809343338012695
50080750000,-9.398428665008396e-05,-0.00018667359836399555,1.4176973763824208e-06,0.0002145436592400074,-0.0030263534281402826,-9.80981731414795
50087751000,-6.567014497704804e-05,-0.00022323487792164087,-4.5954161578265484e-06,-0.0003449888317845762,-0.00037679349770769477,-9.809381484985352
50094722000,-0.00019629084272310138,-0.00023735023569315672,6.31567818345502e-05,5.4279807955026627e-05,0.004017728380858898,-9.810379981994629
50101570000,-8.833326864987612e-05,-0.0001968063006643206,-3.966479482642171e-07,0.0001301444135606289,-0.003432671306654811,-9.810035705566406
50108612000,-0.00015733132022432983,-0.00024702397058717906,6.112624396337196e-05,-0.0002433133777230978,0.003336451482027769,-9.810389518737793
50122533000,-0.00019690727640409023,-0.0002367790148127824,6.30785507382825e-05,-0.00017877528443932533,0.003658888628706336,-9.80996036529541
50129354000,-8.83704487932846e-05,-0.000196767519810237,-4.0782325072541425e-07,0.00011777691543102264,-0.0034387335181236267,-9.810039520263672
50136294000,-3.8766564102843404e-05,-0.00021249002020340413,-2.8221638785908e-06,-0.00022722178255207837,-0.00035251540248282254,-9.810425758361816
50143273000,-0.00019588062423281372,-0.00023744360078126192,6.310834578471258e-05,-1.6592442989349365e-05,0.004091834649443626,-9.809539794921875
50157249000,-0.00015889480710029602,-0.00024198989558499306,6.0619662690442055e-05,-0.00019260728731751442,0.0033376533538103104,-9.810426712036133
50164092000,-8.74605611898005e-05,-0.00019728645565919578,-4.562609490221803e-07,0.00010749395005404949,-0.0031415238045156,-9.80957317352295
50171052000,-7.839071622584015e-05,-0.0002023142296820879,-8.773061495048751e-07,-0.00016220789984799922,-2.7775859052781016e-05,-9.80999755859375
50178017000,-0.00015714543405920267,-0.00024721783120185137,6.11709474469535e-05,-0.00011081225238740444,0.003479807171970606,-9.810394287109375
50184906000,-8.75857804203406e-05,-0.00019726334721781313,-4.190073354948254e-07,0.00016364362090826035,-0.0031362981535494328,-9.809610366821289
50198816000,-8.837567293085158e-05,-0.0001967381831491366,-4.0037232906797726e-07,0.0001180153340101242,-0.0034382373560220003,-9.810039520263672
50205807000,-3.8766564102843404e-05,-0.00021249002020340413,-2.8333397494861856e-06,-0.00022733179503120482,-0.0003534712886903435,-9.810425758361816
50212713000,-0.00019596863421611488,-0.0002374592877458781,6.31157963653095e-05,-1.687370240688324e-05,0.004093226511031389,-9.809538841247559
50219628000,-8.836521010380238e-05,-0.00019679685647133738,-4.040983014874655e-07,0.00013373326510190964,-0.0034268482122570276,-9.810036659240723
50233543000,-8.917857485357672e-05,-0.0001922345400089398,-9.218620107276365e-07,0.00020943046547472477,-0.0031355558894574642,-9.809650421142578
50240521000,-0.00016433012206107378,-0.0002583675377536565,6.344700523186475e-05,-0.0003751162439584732,0.003469232004135847,-9.810151100158691
50247460000,-0.00012055685510858893,-0.00017550289339851588,-7.651045734746731e-07,0.00040158419869840145,-0.003068279242143035,-9.809585571289062
50254446000,-3.9058824768289924e-05,-0.00021220912458375096,-2.866863269446185e-06,-0.00035923864925280213,-0.0005326982936821878,-9.810648918151855
50261349000,-0.00016512838192284107,-0.000254059792496264,6.300374661805108e-05,-0.00011757109314203262,0.003905448131263256,-9.809806823730469
50275245000,-0.0001576608046889305,-0.00024670426500961185,6.110016693128273e-05,-0.0003239433281123638,0.0031613989267498255,-9.810651779174805
50282135000,-8.758313197176903e-05,-0.00019727803010027856,-4.264580866220058e-07,0.00015183561481535435,-0.0031431664247065783,-9.809613227844238
50289120000,-7.837185694370419e-05,-0.00020225030311848968,-8.698549436303438e-07,-0.00016234464419540018,-2.9332804842852056e-05,-9.809996604919434
50296041000,-0.00015711347805336118,-0.00024722726084291935,6.116722215665504e-05,-0.00011106603778898716,0.003480134066194296,-9.810396194458008
50302964000,-8.750037522986531e-05,-0.00019723299192264676,-4.190073354948254e-07,0.000163686228916049,-0.0031376215629279613,-9.809608459472656
50316870000,-8.96044512046501e-05,-0.0001920531503856182,-8.734297125556623e-07,0.0002561858855187893,-0.00325651653110981,-9.809813499450684
50323855000,-0.0001919790229294449,-0.0002423483383608982,6.0694292187690735e-05,-0.00024619465693831444,0.0035338252782821655,-9.80975341796875
50330779000,-8.806714322417974e-05,-0.0001969404984265566,-4.0782623500490445e-07,0.00012473389506340027,-0.0033269564155489206,-9.810209274291992
50337710000,-4.5949243940413e-05,-0.00022382097085937858,-4.715995487458713e-07,-0.00031464057974517345,-0.0002221745962742716,-9.810225486755371
50351587000,-8.781935321167111e-05,-0.000196972003323026,-4.711574206339719e-07,3.1261472031474113e-05,-0.0033167933579534292,-9.809834480285645
50358571000,-4.7558307414874434e-05,-0.0002188707294408232,-9.781803100850084e-07,-0.0002634452539496124,-0.00021638110047206283,-9.810263633728027
50365489000,-0.00016312907973770052,-0.00023691743263043463,6.303372356342152e-05,3.9103906601667404e-05,0.003775577060878277,-9.810335159301758
50372478000,-0.00011457476648502052,-0.00020803854567930102,-2.1959849618724547e-06,4.076678305864334e-05,-0.003167271614074707,-9.808564186096191
50379396000,-0.00019014786812476814,-0.00022528132831212133,6.0783870139857754e-05,-1.540500670671463e-05,0.003458587918430567,-9.810999870300293
50393294000,-0.00016447680536657572,-0.0002583937020972371,6.346935697365552e-05,-0.0003307429142296314,0.0034706159494817257,-9.810192108154297
50400186000,-8.807818812783808e-05,-0.00019704841542989016,-3.482226986761816e-07,0.00025652465410530567,-0.00325581943616271,-9.809812545776367
50407353000,-7.113050378393382e-05,-0.0001909089187392965,-3.2129687497217674e-06,-7.573603943455964e-05,-0.00016465593944303691,-9.810194969177246
50414089000,-0.00016375028644688427,-0.0002587333437986672,6.344327266560867e-05,-0.00030033988878130913,0.003723555477336049,-9.809993743896484
50421117000,-8.96579003892839e-05,-0.0001920929498737678,-8.62254069033952e-07,0.00031634746119379997,-0.0032441983930766582,-9.809850692749023
50434918000,-8.794196764938533e-05,-0.000196963592316024,-4.4880513883072126e-07,7.111020386219025e-05,-0.0033152601681649685,-9.809877395629883
50441963000,-0.00016445794608443975,-0.00025832976098172367,6.346563895931467e-05,-0.0003305173013359308,0.0034681889228522778,-9.810190200805664
50448822000,-8.813948079477996e-05,-0.00019704420992638916,-3.444971241606254e-07,0.00025617657229304314,-0.0032548722811043262,-9.809813499450684
50455812000,-7.125045522116125e-05,-0.0001909151760628447,-3.2278696835419396e-06,-7.552768511231989e-05,-0.00016447485540993512,-9.810194969177246
50469646000,-0.00011454281047917902,-0.000208047975320369,-2.1922598989476683e-06,3.915047273039818e-05,-0.0031638534273952246,-9.80856704711914
50476652000,-0.00016006242367438972,-0.0002637973229866475,6.117449811426923e-05,-0.0002640353050082922,0.00328422780148685,-9.81086254119873
50483533000,-8.939180406741798e-05,-0.0001922271476360038,-8.585312230025011e-07,0.0003103783819824457,-0.0031505015213042498,-9.810016632080078
50490596000,-7.820942846592516e-05,-0.0002023121778620407,-8.99658516573254e-07,-0.0002144816389773041,-3.800416016019881e-05,-9.809956550598145
50497432000,-0.0001570841413922608,-0.00024722202215343714,6.116349686635658e-05,-0.00011083390563726425,0.0034816779661923647,-9.810396194458008
50511405000,-0.00016592032625339925,-0.0002533533552195877,6.293669866863638e-05,-0.00032414798624813557,0.0034712282940745354,-9.810188293457031
50518242000,-8.959660772234201e-05,-0.0001920971553772688,-8.995072562356654e-07,0.00025614164769649506,-0.003255738876760006,-9.809812545776367
50525269000,-0.00019523433002177626,-0.0002417481446173042,6.354787910822779e-05,-0.00028496747836470604,0.003647515084594488,-9.809885025024414
50532166000,-8.846106356941164e-05,-0.0001967685529962182,-3.6684474480352947e-07,0.00016825529746711254,-0.0034330193884670734,-9.810078620910645
50539122000,-3.8739817682653666e-05,-0.00021247012773528695,-2.8296142318140483e-06,-0.0002272945421282202,-0.0003550467954482883,-9.810423851013184
50552978000,-8.836521010380238e-05,-0.00019679685647133738,-4.003730111890036e-07,0.00013373419642448425,-0.0034264600835740566,-9.810037612915039
50559991000,-0.00015883351443335414,-0.0002419941156404093,6.060848681954667e-05,-0.00019248388707637787,0.003337169997394085,-9.810425758361816
50566888000,-8.746578532736748e-05,-0.0001972571189980954,-4.450847370662814e-07,0.00010750186629593372,-0.0031407512724399567,-9.809574127197266
50573913000,-7.839332101866603e-05,-0.0002022995613515377,-8.773059789746185e-07,-0.0001622435956960544,-2.8885857318527997e-05,-9.809998512268066
50587729000,-8.755644375924021e-05,-0.00019725810852833092,-4.190073639165348e-07,0.00016349484212696552,-0.003136157523840666,-9.809609413146973
50594734000,-0.00019687532039824873,-0.0002367884444538504,6.306737486738712e-05,-0.0001787678338587284,0.0036584483459591866,-9.80996036529541
50601597000,-8.83384927874431e-05,-0.0001967769640032202,-3.9292231690524204e-07,0.00011760182678699493,-0.0034382909070700407,-9.810039520263672
50608609000,-3.885196929331869e-05,-0.0002125203754985705,-2.818438588292338e-06,-0.00022739844280295074,-0.0003525065549183637,-9.810425758361816
50615512000,-0.00019587801943998784,-0.00023745826911181211,6.310834578471258e-05,-1.6594305634498596e-05,0.00409191707149148,-9.809538841247559
50629378000,-0.00015724069089628756,-0.0002470229228492826,6.110761751187965e-05,-0.0002435895148664713,0.00333539885468781,-9.810389518737793
50636300000,-8.919746323954314e-05,-0.0001922984520206228,-9.144119985649013e-07,0.00020922673866152763,-0.0031352820806205273,-9.809648513793945
50643312000,-0.00019681142293848097,-0.0002368073328398168,6.304129783529788e-05,-0.00022946437820792198,0.00365463737398386,-9.809922218322754
50650211000,-8.831177547108382e-05,-0.00019675707153510302,-4.115486547107139e-07,0.00011771963909268379,-0.003436832223087549,-9.810040473937988
50664116000,-0.0001651205529924482,-0.00025410379748791456,6.300002132775262e-05,-0.00011133309453725815,0.003908585291355848,-9.809804916381836
50671126000,-0.00011876129428856075,-0.00018048041965812445,-2.6970070621246123e-07,0.0003161458298563957,-0.0030635185539722443,-9.8095064163208
50678057000,-0.00015768755110912025,-0.00024672417202964425,6.108526577008888e-05,-0.00032443879172205925,0.003161223139613867,-9.810651779174805
50684921000,-8.914663339965045e-05,-0.000192243984201923,-9.1813694780285e-07,0.00020277546718716621,-0.0031408588401973248,-9.809651374816895
50698812000,-0.00018919300055131316,-0.0002258830500068143,6.0832291637780145e-05,0.00017354916781187057,0.003850397653877735,-9.809940338134766
50705802000,-8.775807509664446e-05,-0.000196976208826527,-4.674324145526043e-07,3.110198304057121e-05,-0.00331733375787735,-9.809834480285645
50712757000,-0.00016612044419161975,-0.0002534193336032331,6.296650099102408e-05,-0.0002798875793814659,0.0034726974554359913,-9.810229301452637
50719645000,-8.959922706708312e-05,-0.0001920824870467186,-8.808806342130993e-07,0.00025621685199439526,-0.00325745134614408,-9.80981159210205
50726684000,-0.00019525320385582745,-0.00024181204207707196,6.354415381792933e-05,-0.0002854475751519203,0.003647078527137637,-9.809885025024414
50740656000,-3.8545476854778826e-05,-0.00021254144667182118,-2.8705940167128574e-06,-0.0003280856180936098,-0.0003413386584725231,-9.810054779052734
50747555000,-0.000149524217704311,-0.0002526098396629095,5.9177826187806204e-05,-0.00015071453526616096,0.003630706574767828,-9.809799194335938
50754514000,-0.00011972397624049336,-0.00017592957010492682,-7.874639891269908e-07,0.00039654853753745556,-0.002789243822917342,-9.809553146362305
50761425000,-4.616711521521211e-05,-0.0002236176369478926,-5.312012376634812e-07,-0.0004407572851050645,-0.00039594012196175754,-9.810450553894043
50768348000,-0.0001631903724046424,-0.00023691322712693363,6.306725117610767e-05,8.393172174692154e-05,0.0037771742790937424,-9.810376167297363
50782265000,-0.00019005201465915889,-0.0002253096754429862,6.0768968978663906e-05,-1.6324687749147415e-05,0.003457655431702733,-9.81100082397461
50789206000,-8.78832652233541e-05,-0.0001969531294889748,-4.7488225618508295e-07,1.6772421076893806e-05,-0.0033272344153374434,-9.809836387634277
50796176000,-0.00016450881958007812,-0.00025838424335233867,6.346935697365552e-05,-0.00033072405494749546,0.0034708953462541103,-9.810193061828613
50803066000,-8.810490544419736e-05,-0.00019706830789800733,-3.4822281236301933e-07,0.00025618914514780045,-0.003255818970501423,-9.809812545776367
50816968000,-0.0001637691748328507,-0.0002587972558103502,6.344699795590714e-05,-0.0003007650375366211,0.003723501693457365,-9.8099946975708
50823958000,-8.959922706708312e-05,-0.0001920824870467186,-8.622541827207897e-07,0.00031660404056310654,-0.0032450230792164803,-9.809850692749023
50830872000,-0.00019046314992010593,-0.0002472848864272237,6.120087346062064e-05,-0.00029626768082380295,0.0035319984890520573,-9.809715270996094
50837828000,-8.81871092133224e-05,-0.00019694674119818956,-3.8547409531020094e-07,0.00017530331388115883,-0.003323193872347474,-9.810246467590332
50851680000,-8.781674841884524e-05,-0.0001969866716535762,-4.711575911642285e-07,2.0003411918878555e-05,-0.0033215987496078014,-9.809837341308594
50858676000,-4.5962893636897206e-05,-0.00022391421953216195,-4.716004866622825e-07,-0.0003140558837912977,-0.00021776587527710944,-9.810227394104004
50865610000,-0.0001572436303831637,-0.00024242208746727556,6.042594031896442e-05,7.520290091633797e-05,0.0036429371684789658,-9.81020450592041
50872564000,-0.00012060346489306539,-0.00019765533215831965,-3.481078749700828e-07,0.00011251447722315788,-0.002921252278611064,-9.808938980102539
50879502000,-0.0001602164120413363,-0.00026361283380538225,6.1159604229033e-05,-0.00031724944710731506,0.00317461509257555,-9.810656547546387
50893421000,-7.827072113286704e-05,-0.0002023079723585397,-8.996582323561597e-07,-0.00021459684649016708,-3.791251219809055e-05,-9.809956550598145
50900312000,-0.00015713757602497935,-0.0002472618652973324,6.116349686635658e-05,-0.00011099479161202908,0.0034820539876818657,-9.810396194458008
50907321000,-8.913878991734236e-05,-0.0001922879891935736,-9.293133302890055e-07,0.0002142493613064289,-0.0031353235244750977,-9.809645652770996
50914201000,-0.00016594180488027632,-0.00025340256979689,6.293297337833792e-05,-0.0003240944352000952,0.0034713014028966427,-9.810188293457031
50928135000,-0.00019522910588420928,-0.0002417774812784046,6.354787910822779e-05,-0.0002854899503290653,0.003646580735221505,-9.809884071350098
50935049000,-8.840239024721086e-05,-0.000196758090169169,-3.6311956819190527e-07,0.00016849813982844353,-0.003433609614148736,-9.810079574584961
50942053000,-3.8766564102843404e-05,-0.00021249002020340413,-2.8333397494861856e-06,-0.0002272824349347502,-0.0003541930636856705,-9.8104248046875
50948918000,-0.00019590211741160601,-0.00023749284446239471,6.310089520411566e-05,-1.7039943486452103e-05,0.004091823473572731,-9.809538841247559
50955896000,-8.842388342600316e-05,-0.0001968073338503018,-3.9292231690524204e-07,0.00013407180085778236,-0.0034252626355737448,-9.810036659240723
50969734000,-8.746318053454161e-05,-0.0001972717873286456,-4.488101978949999e-07,0.00010744831524789333,-0.003142189932987094,-9.809574127197266
50976741000,-7.837185694370419e-05,-0.00020225030311848968,-8.847561048241914e-07,-0.00016194413183256984,-2.8682334232144058e-05,-9.80999755859375
50983634000,-0.0001570841413922608,-0.00024722202215343714,6.11709474469535e-05,-0.00011097127571702003,0.0034806563053280115,-9.810394287109375
50990663000,-8.755644375924021e-05,-0.00019725810852833092,-4.0783149302114907e-07,0.0001636049710214138,-0.0031360334251075983,-9.809609413146973
50997541000,-0.00019687009626068175,-0.00023681778111495078,6.306364957708865e-05,-0.000179351307451725,0.003657807596027851,-9.80996036529541
51011500000,-3.8771802792325616e-05,-0.00021246068354230374,-2.825888714141911e-06,-0.00022724020527675748,-0.00035292396205477417,-9.810425758361816
51018356000,-0.00019588062423281372,-0.00023744360078126192,6.310089520411566e-05,-1.6821082681417465e-05,0.004092242568731308,-9.809539794921875
51025343000,-8.830915612634271e-05,-0.00019677173986565322,-4.0409824464404664e-07,0.0001338571310043335,-0.0034263853449374437,-9.810036659240723
51032242000,-0.0001572537876199931,-0.0002469495520927012,6.111506809247658e-05,-0.00024304469116032124,0.0033359641674906015,-9.810389518737793
51039258000,-8.920006803236902e-05,-0.0001922837836900726,-9.293129892284924e-07,0.00020872964523732662,-0.0031357721891254187,-9.809650421142578
51053073000,-8.833326864987612e-05,-0.0001968063006643206,-4.152743997565267e-07,0.00011762650683522224,-0.003437572857365012,-9.810040473937988
51060085000,-3.879590076394379e-05,-0.0002124952443409711,-2.8184383609186625e-06,-0.00022710824850946665,-0.0003521362959872931,-9.810425758361816
51066983000,-0.00016509904526174068,-0.00025405455380678177,6.300374661805108e-05,-0.00011126091703772545,0.003907867707312107,-9.809805870056152
51073968000,-0.00011878802615683526,-0.00018050032667815685,-2.771514004962228e-07,0.0003157882019877434,-0.0030634189024567604,-9.809507369995117
51080908000,-0.00015774881467223167,-0.0002467199810780585,6.110016693128273e-05,-0.0003240189980715513,0.0031623821705579758,-9.810651779174805
51094845000,-4.581618122756481e-05,-0.00022388805518858135,-5.088536454422865e-07,-0.00035858788760378957,-0.0002198883448727429,-9.810186386108398
51101699000,-0.00018921709852293134,-0.0002259176253573969,6.082111212890595e-05,0.00017322786152362823,0.003851319430395961,-9.809941291809082
51108760000,-8.78486898727715e-05,-0.00019697722746059299,-4.674321019138006e-07,3.1642382964491844e-05,-0.003316427581012249,-9.809834480285645
51115593000,-0.00016606177086941898,-0.0002534088562242687,6.295905041042715e-05,-0.00028019072487950325,0.003471510484814644,-9.810227394104004
51122580000,-8.798492490313947e-05,-0.0001970620796782896,-3.8175079453139915e-07,0.00020550121553242207,-0.0032591603230684996,-9.809775352478027
51136416000,-8.737666939850897e-05,-0.00019690820772666484,-5.493894832397928e-07,0.0001223529689013958,-0.003339669667184353,-9.81020736694336
51143405000,-4.587747389450669e-05,-0.00022388386423699558,-4.753257769607444e-07,-0.00031341187423095107,-0.000212022932828404,-9.810225486755371
51150313000,-0.00018925167387351394,-0.00022589349828194827,6.0828562709502876e-05,0.0001733093522489071,0.0038497275672852993,-9.809940338134766
51157352000,-8.781674841884524e-05,-0.0001969866716535762,-4.711575911642285e-07,3.12337651848793e-05,-0.003317317459732294,-9.809833526611328
51171184000,-0.00019207177683711052,-0.00026475120102986693,6.122304330347106e-05,-0.00024013547226786613,0.0038733570836484432,-9.808760643005371
51178181000,-0.00014597135304939002,-0.00019120422075502574,-1.960995177796576e-06,0.00031598983332514763,-0.0030583669431507587,-9.809508323669434
51185058000,-0.00015805207658559084,-0.0002465470170136541,6.114860298112035e-05,-0.00025340914726257324,0.00308170891366899,-9.811490058898926
51192041000,-8.762037032283843e-05,-0.00019723924924619496,-4.190069660126028e-07,0.00014819856733083725,-0.003148166462779045,-9.809611320495605
51205865000,-8.805931429378688e-05,-0.00019698450341820717,-4.0782671817396476e-07,0.00012451829388737679,-0.003328105201944709,-9.810208320617676
51212848000,-4.3545529479160905e-05,-0.00020690920064225793,-4.7515362666672445e-07,-0.000211319827940315,-0.00023453972244169563,-9.810593605041504
51219759000,-0.00018975342391058803,-0.0002478698152117431,6.12530202488415e-05,-8.606025949120522e-05,0.0038657125551253557,-9.809165000915527
51226801000,-8.814992906991392e-05,-0.00019698553660418838,-3.854746353226801e-07,0.00018768035806715488,-0.0033156743738800287,-9.810243606567383
51233657000,-0.00018970048404298723,-0.00022541348880622536,6.071681127650663e-05,-9.416183456778526e-05,0.0035238172858953476,-9.810159683227539
51247556000,-0.00015755181084387004,-0.00024680595379322767,6.113741983426735e-05,-0.0002456295769661665,0.003233696799725294,-9.810223579406738
51254541000,-8.755644375924021e-05,-0.00019725810852833092,-4.2645794451345864e-07,0.0001545522827655077,-0.0031421987805515528,-9.809612274169922
51261496000,-4.519177309703082e-05,-0.00020192019292153418,-9.705579486762872e-07,-0.000153678614879027,-0.00022489811817649752,-9.810629844665527
51268373000,-0.0001897267356980592,-0.0002478498499840498,6.123439379734918e-05,-0.00013659149408340454,0.0038618440739810467,-9.809128761291504
51282285000,-0.00019254634389653802,-0.00024222243519034237,6.077997386455536e-05,-0.00012270687147974968,0.0034630661830306053,-9.810630798339844
51289242000,-8.807498670648783e-05,-0.00019689647888299078,-4.041004331156728e-07,0.00012137694284319878,-0.003334658918902278,-9.810205459594727
51296162000,-4.5978580601513386e-05,-0.00022382618044503033,-4.7159949190245243e-07,-0.0003155619779136032,-0.0002229263773187995,-9.810226440429688
51303117000,-0.00018927839118987322,-0.00022591340530198067,6.081738683860749e-05,0.00017278781160712242,0.0038485690020024776,-9.809940338134766
51317034000,-0.0001637565583223477,-0.0002364540850976482,6.297412619460374e-05,-0.00017632567323744297,0.003460519714280963,-9.810595512390137
51324000000,-0.00011452131730038673,-0.00020799874619115144,-2.1959847344987793e-06,2.9527349397540092e-05,-0.0031734865624457598,-9.80856704711914
51330927000,-0.00016003308701328933,-0.0002637920551933348,6.117449811426923e-05,-0.00026430259458720684,0.003284058067947626,-9.81086254119873
51337857000,-0.00012023208546452224,-0.00017562661378178746,-7.57656550831598e-07,0.00040501682087779045,-0.0029659848660230637,-9.809751510620117
51344805000,-4.620430991053581e-05,-0.000223578856093809,-5.349259595277545e-07,-0.00044758294825442135,-0.00040329922921955585,-9.810449600219727
51358722000,-8.785130921751261e-05,-0.0001969625591300428,-4.748825119804678e-07,3.1287781894207e-05,-0.0033169800881296396,-9.809832572937012
51365614000,-4.5909429900348186e-05,-0.00022387442004401237,-4.902266823592072e-07,-0.0003141505876556039,-0.00021849873883184046,-9.81022834777832
51372602000,-0.00018922233721241355,-0.0002258882886962965,6.08173904765863e-05,0.0001730932854115963,0.0038491059094667435,-9.809940338134766
51379526000,-8.78728023963049e-05,-0.00019701180281117558,-4.6743235770918545e-07,3.1131552532315254e-05,-0.0033167842775583267,-9.809833526611328
51386468000,-0.00016448466340079904,-0.00025834966800175607,6.347681483021006e-05,-0.00033009215258061886,0.003470338648185134,-9.810192108154297
51393481000,-8.808341226540506e-05,-0.00019701907876878977,-3.593982285110542e-07,0.0002564189489930868,-0.003255895571783185,-9.809812545776367
51407365000,-8.778479241300374e-05,-0.00019699610129464418,-4.711577901161945e-07,1.9680941477417946e-05,-0.0033221810590475798,-9.809837341308594
51414361000,-4.356962745077908e-05,-0.00020694377599284053,-4.7142864900706627e-07,-0.00021094741532579064,-0.0002297555038239807,-9.810595512390137
51421186000,-0.00018742152315098792,-0.00023089513706509024,6.127181404735893e-05,1.8349383026361465e-05,0.003854727605357766,-9.80953311920166
51428164000,-8.787542174104601e-05,-0.0001969971344806254,-4.4135515508969547e-07,8.259573951363564e-05,-0.0033100098371505737,-9.809874534606934
51442051000,-8.614800754003227e-05,-0.00017985781596507877,-3.741238003840408e-07,0.0002718963660299778,-0.003446051385253668,-9.810444831848145
51448941000,-0.00015707252896390855,-0.00024694757303223014,6.105918873799965e-05,-0.0003479071892797947,0.0033412310294806957,-9.810019493103027
51455994000,-8.752710709813982e-05,-0.00019725288439076394,-4.22732739480125e-07,0.0001590913161635399,-0.0031344573944807053,-9.809614181518555
51462851000,-4.5213266275823116e-05,-0.00020196943660266697,-9.817343880058615e-07,-0.00015361656551249325,-0.00022501112835016102,-9.810628890991211
51476784000,-0.00011493937927298248,-0.00020786136155948043,-2.1214759726717602e-06,0.00011666282080113888,-0.0032347366213798523,-9.809407234191895
51483760000,-0.00019243158749304712,-0.00024218684120569378,6.076507270336151e-05,-0.00012257718481123447,0.003462215419858694,-9.810630798339844
51490715000,-8.806453843135387e-05,-0.00019695516675710678,-4.1155169583362294e-07,0.0001208670437335968,-0.003333962056785822,-9.810206413269043
51497582000,-4.588533192873001e-05,-0.00022383984469342977,-4.790505272467271e-07,-0.00031514858710579574,-0.00022338188136927783,-9.810225486755371
51504491000,-0.00018927839118987322,-0.00022591340530198067,6.082111212890595e-05,0.00017284322530031204,0.0038495822809636593,-9.809941291809082
51518433000,-0.00016366854833904654,-0.00023643839813303202,6.295549246715382e-05,-0.00017627817578613758,0.003458560910075903,-9.810596466064453
51525443000,-0.00011408120917622,-0.00020792029681615531,-2.266765932290582e-06,2.8742477297782898e-05,-0.003179003018885851,-9.808568000793457
51532281000,-0.00019089746638201177,-0.000247226154897362,6.127537926658988e-05,-0.00016944203525781631,0.0034740562550723553,-9.810596466064453
51539262000,-8.81844898685813e-05,-0.00019696142408065498,-3.742983949450718e-07,0.0001720788422971964,-0.003330116393044591,-9.810243606567383
51553106000,-0.0001960592926479876,-0.00023746033548377454,6.315304926829413e-05,8.75755213201046e-05,0.004084140993654728,-9.809906959533691
51560168000,-8.83384927874431e-05,-0.0001967769640032202,-3.9664760720370396e-07,0.00013301335275173187,-0.0034296796657145023,-9.810035705566406
51567026000,-0.0001897030888358131,-0.00022539882047567517,6.070936069590971e-05,-9.794393554329872e-05,0.003521050326526165,-9.810160636901855
51574047000,-8.784608507994562e-05,-0.00019699189579114318,-4.6743224402234773e-07,1.9526109099388123e-05,-0.0033202343620359898,-9.809837341308594
51587823000,-0.00018922494200523943,-0.00022587362036574632,6.08173904765863e-05,0.000173056498169899,0.003848496824502945,-9.80993938446045
51594819000,-8.790478750597686e-05,-0.00019700235861819237,-4.637068400370481e-07,3.110547550022602e-05,-0.0033161842729896307,-9.809834480285645
51601739000,-0.00016450617113150656,-0.0002583989407867193,6.347308226395398e-05,-0.0003304937854409218,0.003470217576250434,-9.81019115447998
51608742000,-8.811014413367957e-05,-0.00019703897123690695,-3.4449718100404425e-07,0.0002565104514360428,-0.0032555265352129936,-9.809812545776367
51615620000,-7.119440124370158e-05,-0.0001908900449052453,-3.2241441658698022e-06,-7.563218241557479e-05,-0.00016466206579934806,-9.810194969177246
51629621000,-0.00012016556866001338,-0.00017566015594638884,-7.576571192657866e-07,0.00041816546581685543,-0.002950941678136587,-9.809751510620117
51636463000,-0.0001647717144805938,-0.0002580981235951185,6.342093547573313e-05,-0.0004634424112737179,0.0032869381830096245,-9.810413360595703
51643489000,-8.73898679856211e-05,-0.00017509942699689418,-8.509056783623237e-07,0.0004041288048028946,-0.003267606720328331,-9.810220718383789
51650369000,-0.00019084240193478763,-0.00026926962891593575,6.158806354505941e-05,-0.0005561038851737976,0.0035448307171463966,-9.808941841125488
51664239000,-7.119178189896047e-05,-0.0001909047132357955,-3.231594746466726e-06,-7.858667231630534e-05,-0.00017131882486864924,-9.81019115447998
51671162000,-0.0001614319917280227,-0.00024185198708437383,6.344716530293226e-05,-0.0001976368948817253,0.003712286474183202,-9.810361862182617
51678188000,-8.782776421867311e-05,-0.00019709458865690976,-4.1155405483550567e-07,0.0001616526860743761,-0.003238566219806671,-9.809444427490234
51685062000,-0.00018970048404298723,-0.00022541348880622536,6.073543772799894e-05,-9.050406515598297e-05,0.003528639441356063,-9.810159683227539
51692056000,-9.253440657630563e-05,-0.000191410057595931,1.8497752307666815e-06,3.11585608869791e-05,-0.0032092505134642124,-9.810006141662598
51705974000,-8.761514618527144e-05,-0.00019726858590729535,-4.190072786514065e-07,0.00015466916374862194,-0.0031420111190527678,-9.809612274169922
51712847000,-4.518916830420494e-05,-0.00020193486125208437,-9.742833526615868e-07,-0.00015358556993305683,-0.0002254492719657719,-9.810629844665527
51719774000,-0.00018814174109138548,-0.0002528347249608487,6.173724977998063e-05,-0.00018699048087000847,0.003860565833747387,-9.809090614318848
51726821000,-0.00011664950579870492,-0.0002028534800047055,-2.5982533315982437e-06,0.00021828943863511086,-0.0032302101608365774,-9.809481620788574
51740722000,-8.857583452481776e-05,-0.0001968041469808668,-3.2959175655378203e-07,0.0002465355210006237,-0.0034021977335214615,-9.811084747314453
51747575000,-3.8763959310017526e-05,-0.00021250468853395432,-2.8296144591877237e-06,-0.0002269483229611069,-0.00035722024040296674,-9.81042194366455
51754522000,-0.00019584606343414634,-0.00023746772785671055,6.311207107501104e-05,-1.6934704035520554e-05,0.0040925187058746815,-9.809539794921875
51761492000,-8.830131264403462e-05,-0.0001968157448573038,-4.0037343751464505e-07,0.00013403035700321198,-0.0034263343550264835,-9.810035705566406
51768387000,-0.00016370834782719612,-0.00023638496350031346,6.297412619460374e-05,-0.00018097064457833767,0.0034528484102338552,-9.81059455871582
51782325000,-6.995833246037364e-05,-0.0001957856584340334,-2.665407464519376e-06,-5.0373084377497435e-05,-0.00023307590163312852,-9.810999870300293
51789296000,-0.00016384353511966765,-0.00025871972320601344,6.348425085889176e-05,-0.000252558384090662,0.0037155570462346077,-9.810029029846191
51796245000,-0.00011702820484060794,-0.000180353075847961,-6.273336339290836e-07,0.0003548450767993927,-0.003094345796853304,-9.809545516967773
51803131000,-0.00015758638619445264,-0.0002467818558216095,6.109644164098427e-05,-0.0003205658867955208,0.003188981907442212,-9.810651779174805
51817028000,-7.116506458260119e-05,-0.0001908848062157631,-3.2204188755713403e-06,-7.027796527836472e-05,-0.00015620367776136845,-9.810195922851562
51824110000,-0.00016377438441850245,-0.0002587679191492498,6.34507232462056e-05,-0.00029754219576716423,0.0036812173202633858,-9.809993743896484
51831000000,-7.566595741081983e-05,-0.00019127853738609701,-3.8052769468777115e-06,0.00027571734972298145,-0.003476354293525219,-9.809844970703125
51837931000,-0.00019626352877821773,-0.00023716372379567474,6.30301219644025e-05,-0.00020242482423782349,0.00387081247754395,-9.80992603302002
51851877000,-0.00015962027828209102,-0.0002639001468196511,6.110744288889691e-05,-0.0003464610781520605,0.0033468580804765224,-9.81002140045166
51858848000,-8.941329724621028e-05,-0.00019227639131713659,-8.697075486452377e-07,0.00031342729926109314,-0.00314301997423172,-9.810018539428711
51865706000,-7.827594527043402e-05,-0.0002022786356974393,-8.996578912956466e-07,-0.00021392040071077645,-3.820721758529544e-05,-9.809955596923828
51872765000,-0.00015710823936387897,-0.00024725665571168065,6.116349686635658e-05,-0.00011113379150629044,0.003482033498585224,-9.810395240783691
51886580000,-7.833464769646525e-05,-0.0002022890985244885,-8.773060926614562e-07,-0.00016247060557361692,-3.070254751946777e-05,-9.809996604919434
51893530000,-0.0001570867607370019,-0.00024720735382288694,6.116722215665504e-05,-0.00011048698797821999,0.0034805568866431713,-9.810394287109375
51900426000,-0.00011841820378322154,-0.0001807068329071626,-3.1440788461623015e-07,0.0002573900856077671,-0.00295273051597178,-9.809344291687012
51907479000,-0.00016486496315337718,-0.0002580844738986343,6.345073779812083e-05,-0.0004112408496439457,0.0032942346297204494,-9.810454368591309
51914320000,-8.811536827124655e-05,-0.00019700963457580656,-3.5194744896216434e-07,0.00024982099421322346,-0.003260228084400296,-9.809813499450684
51928255000,-8.781412907410413e-05,-0.0001970013399841264,-4.711577616944851e-07,1.934194006025791e-05,-0.0033213349524885416,-9.80983829498291
51935154000,-4.356962745077908e-05,-0.00020694377599284053,-4.6770335870860436e-07,-0.00021054426906630397,-0.00022955589520279318,-9.81059455871582
51942202000,-0.00018736023048404604,-0.00023089935712050647,6.126063090050593e-05,1.8114689737558365e-05,0.0038536933716386557,-9.80953311920166
51949040000,-8.790478750597686e-05,-0.00019700235861819237,-4.450803885447385e-07,8.268607780337334e-05,-0.0033089304342865944,-9.809873580932617
51963003000,-8.932790660765022e-05,-0.00019224602147005498,-8.58531677749852e-07,0.0003137949388474226,-0.0031440602615475655,-9.810018539428711
51969892000,-0.00019690205226652324,-0.0002368083514738828,6.30487484158948e-05,-0.00023051537573337555,0.003652241313830018,-9.809920310974121
51976936000,-8.837567293085158e-05,-0.0001967381831491366,-4.0037232906797726e-07,0.0001179366372525692,-0.003437984734773636,-9.810040473937988
51983813000,-3.874243702739477e-05,-0.00021245545940473676,-2.818438133544987e-06,-0.00022727486793883145,-0.00035245344042778015,-9.810425758361816
51990736000,-0.0001959314540727064,-0.00023749805404804647,6.310834578471258e-05,-1.7134472727775574e-05,0.004092440474778414,-9.809537887573242
52004633000,-0.00015727264690212905,-0.00024701349320821464,6.11225186730735e-05,-0.00024318834766745567,0.003335643792524934,-9.810389518737793
52011587000,-8.916812657844275e-05,-0.00019229321333114058,-9.255879831471248e-07,0.00020921719260513783,-0.0031361111905425787,-9.809649467468262
52018529000,-7.827072113286704e-05,-0.0002023079723585397,-9.182846838484693e-07,-0.00021342094987630844,-3.405624011065811e-05,-9.809958457946777
52025498000,-0.0001570574240759015,-0.0002472021442372352,6.11709474469535e-05,-0.00011042412370443344,0.0034820078872144222,-9.810395240783691
52032405000,-8.7492517195642e-05,-0.00019727701146621257,-4.3018368955927144e-07,0.000163183081895113,-0.0031370038632303476,-9.809609413146973
52046285000,-8.842388342600316e-05,-0.0001968073338503018,-4.040981878006278e-07,0.00011774105951189995,-0.0034381041768938303,-9.810038566589355
52053227000,-0.00015733132022432983,-0.00024702397058717906,6.110761751187965e-05,-0.00024369475431740284,0.0033353769686073065,-9.810389518737793
52060226000,-8.75297118909657e-05,-0.00019723821606021374,-4.190072786514065e-07,0.0001587793231010437,-0.003138404106721282,-9.809612274169922
52067139000,-7.839332101866603e-05,-0.0002022995613515377,-8.884818498700042e-07,-0.00016289117047563195,-3.0151786631904542e-05,-9.809996604919434
52081016000,-8.75297118909657e-05,-0.00019723821606021374,-4.2273256894986844e-07,0.00016345991753041744,-0.0031364429742097855,-9.809610366821289
52087946000,-7.836137956473976e-05,-0.00020230899099260569,-8.698555689079512e-07,-0.00016262978897430003,-2.9716917197220027e-05,-9.809996604919434
52094999000,-0.00015702808741480112,-0.00024719693465158343,6.117094017099589e-05,-0.00011052330955862999,0.0034796693362295628,-9.810393333435059
52101837000,-0.00011841820378322154,-0.0001807068329071626,-3.255837555116159e-07,0.00025767507031559944,-0.0029523170087486506,-9.809344291687012
52108872000,-0.00015763408737257123,-0.0002466843870934099,6.109644164098427e-05,-0.0003190855495631695,0.0031644070986658335,-9.810651779174805
52122760000,-0.00019686225277837366,-0.00023686178610660136,6.306364957708865e-05,-0.00017637712880969048,0.0036761625669896603,-9.809962272644043
52129648000,-8.83384927874431e-05,-0.0001967769640032202,-3.9664760720370396e-07,0.00011871429160237312,-0.0034374454990029335,-9.810038566589355
52136561000,-3.8763959310017526e-05,-0.00021250468853395432,-2.8258891688892618e-06,-0.0002271681441925466,-0.0003528408124111593,-9.810425758361816
52143578000,-0.00019587801943998784,-0.00023745826911181211,6.308599404292181e-05,-1.6946811228990555e-05,0.004091580864042044,-9.809538841247559
52150495000,-8.833064930513501e-05,-0.00019682096899487078,-3.9292280007430236e-07,0.00013369321823120117,-0.0034252938348799944,-9.810037612915039
52164405000,-9.400577982887626e-05,-0.00018672284204512835,1.4176969216350699e-06,0.00022043567150831223,-0.00302252359688282,-9.809816360473633
52171300000,-0.00018424799782224,-0.00025769544299691916,5.934554064879194e-05,-0.00036036293022334576,0.003312158863991499,-9.809344291687012
52178267000,-8.79744766280055e-05,-0.00019712075300049037,-3.705755773353303e-07,0.00022914656437933445,-0.003212602809071541,-9.810452461242676
52185170000,-7.83425202826038e-05,-0.0002022450789809227,-8.810308713691484e-07,-0.00016583604156039655,-3.679213114082813e-05,-9.809995651245117
52199081000,-8.746318053454161e-05,-0.0001972717873286456,-4.4508490759653796e-07,0.00011239852756261826,-0.0031406546477228403,-9.809571266174316
52206063000,-0.00019687271560542285,-0.00023680311278440058,6.305992428679019e-05,-0.00017868448048830032,0.0036601624451577663,-9.80996036529541
52212982000,-8.831177547108382e-05,-0.00019675707153510302,-4.0409807411379006e-07,0.00011812476441264153,-0.003438538173213601,-9.810039520263672
52219929000,-3.8793295971117914e-05,-0.0002125099126715213,-2.8221638785908e-06,-0.00022748758783563972,-0.00035214817035011947,-9.810425758361816
52233801000,-8.836521010380238e-05,-0.00019679685647133738,-3.966477208905417e-07,0.00013385247439146042,-0.0034261983819305897,-9.810036659240723
52240827000,-0.00015727788559161127,-0.00024698415654711425,6.111506809247658e-05,-0.000243073096498847,0.003335970686748624,-9.810389518737793
52247685000,-8.755644375924021e-05,-0.00019725810852833092,-4.11556783319611e-07,0.00015829573385417461,-0.0031380499713122845,-9.809612274169922
52254613000,-0.00019696075469255447,-0.00023681882885284722,6.307110015768558e-05,-0.00017890660092234612,0.003659276757389307,-9.80996036529541
52268573000,-3.879067662637681e-05,-0.0002125245810020715,-2.8333397494861856e-06,-0.00022742478176951408,-0.0003528730303514749,-9.8104248046875
52275529000,-0.0001959099608939141,-0.00023744883947074413,6.308599404292181e-05,-1.6500242054462433e-05,0.004092156421393156,-9.809538841247559
52282402000,-8.83143802639097e-05,-0.00019674240320455283,-3.891967423896858e-07,0.00013382826000452042,-0.0034256000071763992,-9.810037612915039
52289347000,-0.00015730987070128322,-0.0002469746978022158,6.112624396337196e-05,-0.00024315482005476952,0.0033359997905790806,-9.810389518737793
52296328000,-8.916550723370165e-05,-0.00019230788166169077,-9.255881536773813e-07,0.00020875222980976105,-0.0031367456540465355,-9.809648513793945
52310237000,-0.00015718521899543703,-0.0002471643965691328,6.12007497693412e-05,-5.946354940533638e-05,0.0034856810234487057,-9.810434341430664
52317114000,-0.00011839410581160337,-0.00018067227210849524,-3.1813289069759776e-07,0.0002575218677520752,-0.0029551140032708645,-9.809342384338379
52324202000,-0.00015763408737257123,-0.0002466843870934099,6.10927163506858e-05,-0.00031949812546372414,0.0031677642837166786,-9.810652732849121
52331022000,-8.755644375924021e-05,-0.00019725810852833092,-4.190073639165348e-07,0.00015191244892776012,-0.0031421631574630737,-9.809614181518555
52337959000,-7.839857426006347e-05,-0.0002022702101385221,-8.773056379141053e-07,-0.00016226453590206802,-2.994445094373077e-05,-9.809996604919434
52351849000,-8.916812657844275e-05,-0.00019229321333114058,-9.330385637440486e-07,0.0002139545977115631,-0.003134691622108221,-9.809646606445312
52358852000,-0.00019513844745233655,-0.00024177643354050815,6.354042852763087e-05,-0.0002802489325404167,0.0036531805526465178,-9.809885025024414
52365743000,-8.848255674820393e-05,-0.00019681778212543577,-3.7429575172609475e-07,0.00016847159713506699,-0.0034326340537518263,-9.810079574584961
52372711000,-0.0001573392073623836,-0.000246979936491698,6.112996925367042e-05,-0.00024344841949641705,0.0033348395954817533,-9.810389518737793
52386587000,-7.596291834488511e-05,-0.00018536788411438465,-8.73409419455129e-07,-5.937165406066924e-05,-4.226824967190623e-05,-9.81036376953125
52393628000,-0.00016166872228495777,-0.00024171255063265562,6.346579903038219e-05,-0.00020394567400217056,0.0036019766703248024,-9.810193061828613
52400495000,-8.779580821283162e-05,-0.00019710403284989297,-4.1900486280610494e-07,0.00015733810141682625,-0.0032431078143417835,-9.809444427490234
52407518000,-0.00018805425497703254,-0.0002304024965269491,6.1227117839735e-05,-0.000141228549182415,0.0035272366367280483,-9.810124397277832
52421274000,-3.8766564102843404e-05,-0.00021249002020340413,-2.8258891688892618e-06,-0.00022207823349162936,-0.00034660755773074925,-9.810426712036133
52428282000,-0.00019587801943998784,-0.00023745826911181211,6.30971699138172e-05,-1.6461126506328583e-05,0.0040918984450399876,-9.809537887573242
52435199000,-8.830653678160161e-05,-0.0001967864081962034,-4.040983867525938e-07,0.0001336582936346531,-0.003426353679969907,-9.810037612915039
52442229000,-0.00016376178245991468,-0.00023642474843654782,6.296295032370836e-05,-0.00018100347369909286,0.003452792065218091,-9.810593605041504
52449080000,-0.00011449720477685332,-0.00020796418539248407,-2.18853392652818e-06,2.9437709599733353e-05,-0.0031729021575301886,-9.808568000793457
52462980000,-8.789109415374696e-05,-0.00019690912449732423,-4.4880474092678924e-07,6.804591976106167e-05,-0.003324430901557207,-9.809874534606934
52469931000,-4.599482053890824e-05,-0.00022390477533917874,-4.753255780087784e-07,-0.00031492667039856315,-0.00021979035227559507,-9.810226440429688
52476940000,-0.0001893129519885406,-0.0002258893073303625,6.0828562709502876e-05,0.00017345882952213287,0.003849222557619214,-9.809940338134766
52483793000,-8.78486898727715e-05,-0.00019697722746059299,-4.674321019138006e-07,3.0802562832832336e-05,-0.003317474387586117,-9.809834480285645
52497721000,-0.00015819291002117097,-0.00024253077572211623,6.066063360776752e-05,-2.60830856859684e-05,0.0036725718528032303,-9.809836387634277
52504662000,-8.7492517195642e-05,-0.00019727701146621257,-4.413595604546572e-07,0.00011985329911112785,-0.0031335107050836086,-9.809572219848633
52511610000,-0.00019696859817486256,-0.00023677482386119664,6.307482544798404e-05,-0.0001783040352165699,0.0036610898096114397,-9.809962272644043
52518516000,-8.839716610964388e-05,-0.0001967874268302694,-3.9664749351686623e-07,0.00011774897575378418,-0.0034387344494462013,-9.810038566589355
52525512000,-0.00015733132022432983,-0.00024702397058717906,6.111506809247658e-05,-0.00024365587159991264,0.0033355578780174255,-9.810388565063477
52539494000,-7.833464769646525e-05,-0.0002022890985244885,-8.773060926614562e-07,-0.00016252402565442026,-3.0442781280726194e-05,-9.809996604919434
52546322000,-0.00019035479635931551,-0.00024755316553637385,6.127537199063227e-05,-0.00011962419375777245,0.003676487598568201,-9.809761047363281
52553227000,-8.816039189696312e-05,-0.00019692684873007238,-3.70572848851225e-07,0.00018037366680800915,-0.0033232637215405703,-9.810242652893066
52560265000,-0.0001881103089544922,-0.00023042764223646373,6.1227117839735e-05,-0.0001452174037694931,0.0035218307748436928,-9.810121536254883
52574202000,-0.00016448990209028125,-0.0002583203313406557,6.34730895399116e-05,-0.00033044046722352505,0.003468562616035342,-9.81019115447998
52581112000,-8.81609448697418e-05,-0.00019709345360752195,-3.519481310831907e-07,0.0002558289561420679,-0.003255148185417056,-9.809813499450684
52587999000,-7.118655776139349e-05,-0.00019093404989689589,-3.235320491512539e-06,-7.561920210719109e-05,-0.00016538705676794052,-9.810193061828613
52595072000,-0.0001614346110727638,-0.0002418373042019084,6.345834117382765e-05,-0.00019700545817613602,0.003712572855874896,-9.810362815856934
52608864000,-0.00018972982070408762,-0.00022541872749570757,6.071308598620817e-05,-9.064516052603722e-05,0.003529173554852605,-9.810158729553223
52615772000,-8.78832652233541e-05,-0.0001969531294889748,-4.637063852896972e-07,2.0131468772888184e-05,-0.003320684190839529,-9.809840202331543
52622817000,-4.599482053890824e-05,-0.00022390477533917874,-4.753255780087784e-07,-0.0003144481161143631,-0.00021828273020219058,-9.810227394104004
52629696000,-0.00018924643518403172,-0.00022592283494304866,6.081738683860749e-05,0.00017322087660431862,0.003848893102258444,-9.80993938446045
52636627000,-8.784608507994562e-05,-0.00019699189579114318,-4.7115753432080965e-07,3.123795613646507e-05,-0.00331712095066905,-9.809834480285645
52650616000,-8.78010323503986e-05,-0.00019707469618879259,-4.1527923144712986e-07,0.00015208940021693707,-0.0032487078569829464,-9.809444427490234
52657545000,-0.0001881103089544922,-0.00023042764223646373,6.121966725913808e-05,-0.00014189863577485085,0.003527011489495635,-9.8101224899292
52664421000,-8.793672895990312e-05,-0.0001969929289771244,-4.450801895927725e-07,7.090508006513119e-05,-0.003317641094326973,-9.809876441955566
52671294000,-4.5949243940413e-05,-0.00022382097085937858,-4.715995487458713e-07,-0.0003139985492452979,-0.00021975088748149574,-9.810227394104004
52685201000,-8.784346573520452e-05,-0.00019700656412169337,-4.5998180553397106e-07,3.095576539635658e-05,-0.003316278103739023,-9.809834480285645
52692251000,-4.522372910287231e-05,-0.0002019107632804662,-9.854589961832971e-07,-0.0001595635840203613,-0.0002282835339428857,-9.81063175201416
52699123000,-0.00018967330106534064,-0.0002478100941516459,6.12232179264538e-05,-0.00013653282076120377,0.003861416596919298,-9.809127807617188
52706043000,-0.00011493937927298248,-0.00020786136155948043,-2.136377133865608e-06,0.00011644605547189713,-0.0032346900552511215,-9.809405326843262
52713038000,-0.00016646092990413308,-0.0002532075741328299,6.3022380345501e-05,-0.00020554638467729092,0.003393451916053891,-9.811064720153809
52726917000,-0.0001897057081805542,-0.00022538415214512497,6.070936069590971e-05,-9.175576269626617e-05,0.003525521606206894,-9.810158729553223
52733879000,-8.781935321167111e-05,-0.000196972003323026,-4.7488271093243384e-07,1.9712606444954872e-05,-0.0033210720866918564,-9.809837341308594
52740821000,-4.3545529479160905e-05,-0.00020690920064225793,-4.639777557713387e-07,-0.00021061269217170775,-0.0002296424499945715,-9.810595512390137
52747788000,-0.0001897560723591596,-0.000247855088673532,6.126419611973688e-05,-8.562952280044556e-05,0.0038659749552607536,-9.809165954589844
52754632000,-8.814992906991392e-05,-0.00019698553660418838,-3.854746353226801e-07,0.00018754974007606506,-0.003316629445180297,-9.810243606567383
52768540000,-9.270785085391253e-05,-0.00019145611440762877,1.8721271999311284e-06,3.099185414612293e-05,-0.003206828609108925,-9.810006141662598
52775590000,-0.00015761316171847284,-0.0002468017628416419,6.113741983426735e-05,-0.00024514878168702126,0.0032343296334147453,-9.810224533081055
52782443000,-8.75857804203406e-05,-0.00019726334721781313,-4.227326257932873e-07,0.00015431316569447517,-0.0031422360334545374,-9.809611320495605
52789351000,-4.518392961472273e-05,-0.00020196419791318476,-9.854595646174857e-07,-0.0001536336785648018,-0.00022557754709850997,-9.810629844665527
52803249000,-0.00011493675992824137,-0.00020787602989003062,-2.128926553268684e-06,0.00011649541556835175,-0.003235399955883622,-9.809405326843262
52810298000,-0.00019093466107733548,-0.0002471873303875327,6.128655513748527e-05,-0.00017323391512036324,0.003461966523900628,-9.81059455871582
52817157000,-8.815777255222201e-05,-0.00019694151706062257,-3.8919947087379114e-07,0.0001717815175652504,-0.0033318817149847746,-9.8102445602417
52824132000,-7.124261173885316e-05,-0.00019095918105449528,-3.231595201214077e-06,-7.845068466849625e-05,-0.00016487634275108576,-9.810194969177246
52831064000,-0.00016379851149395108,-0.0002588024944998324,6.344327266560867e-05,-0.0003004176542162895,0.0037235096096992493,-9.8099946975708
52845032000,-0.0001637031091377139,-0.00023641430016141385,6.297412619460374e-05,-0.00017438456416130066,0.00345577928237617,-9.810592651367188
52851914000,-0.0001145558780990541,-0.00020797463366761804,-2.1885336991545046e-06,2.956693060696125e-05,-0.0031727824825793505,-9.80856704711914
52859016000,-0.00019008919480256736,-0.00022527088003698736,6.0783870139857754e-05,-1.613609492778778e-05,0.0034571660216897726,-9.811001777648926
52865779000,-8.785130921751261e-05,-0.0001969625591300428,-4.860583544541441e-07,1.656869426369667e-05,-0.0033276439644396305,-9.809836387634277
52872689000,-4.596810322254896e-05,-0.00022388488287106156,-4.827760449188645e-07,-0.00031454084091819823,-0.00021817648666910827,-9.810227394104004
52886594000,-8.784346573520452e-05,-0.00019700656412169337,-4.748829667278187e-07,3.122235648334026e-05,-0.003316799644380808,-9.809833526611328
52893655000,-4.594662459567189e-05,-0.00022383563918992877,-4.827755901715136e-07,-0.0003136717132292688,-0.00021819883841089904,-9.81022834777832
52900491000,-0.00018919822468888015,-0.0002258537133457139,6.082484105718322e-05,0.00017303554341197014,0.003848828375339508,-9.80993938446045
52907479000,-8.787542174104601e-05,-0.0001969971344806254,-4.6370689688046696e-07,3.098975867033005e-05,-0.0033167744986712933,-9.809833526611328
52921330000,-8.807293488644063e-05,-0.00019707776664290577,-3.4449772101652343e-07,0.00025594187900424004,-0.003255810122936964,-9.809812545776367
52928325000,-0.0001897057081805542,-0.00022538415214512497,6.072798714740202e-05,-9.152619168162346e-05,0.0035247267223894596,-9.810158729553223
52935200000,-8.781674841884524e-05,-0.0001969866716535762,-4.748828814626904e-07,1.9431347027420998e-05,-0.0033218711614608765,-9.80983829498291
52942201000,-4.357486614026129e-05,-0.00020691443933174014,-4.714283079465531e-07,-0.00021039645071141422,-0.0002296983584528789,-9.81059455871582
52956022000,-8.817666093818843e-05,-0.00019700542907230556,-3.8547477743122727e-07,0.0001873678993433714,-0.0033159360755234957,-9.810243606567383
52963092000,-0.00018969524535350502,-0.00022544282546732575,6.072798714740202e-05,-9.41161997616291e-05,0.0035239551216363907,-9.810158729553223
52969970000,-9.263026004191488e-05,-0.0001913817395688966,1.8758529449769412e-06,3.162887878715992e-05,-0.0032073715701699257,-9.810006141662598
52977007000,-0.00015760792302899063,-0.0002468310995027423,6.113369454396889e-05,-0.00024544703774154186,0.0032316127326339483,-9.810223579406738
52983836000,-8.638863801024854e-05,-0.00019718614930752665,-6.686054234705807e-07,0.00015123537741601467,-0.0031617688946425915,-9.809612274169922
52997729000,-0.00018975083366967738,-0.0002478844835422933,6.122694321675226e-05,-0.00013589952141046524,0.0038628780748695135,-9.809128761291504
53004640000,-0.00011488852032925934,-0.00020780689374078065,-2.128926098521333e-06,0.0001169140450656414,-0.003236149437725544,-9.809406280517578
53011670000,-0.00019251959747634828,-0.00024220252817030996,6.078369915485382e-05,-0.0001228228211402893,0.0034637385979294777,-9.810630798339844
53018667000,-8.812843589112163e-05,-0.00019693627837114036,-4.1155124108627206e-07,0.00012096716091036797,-0.003334857989102602,-9.81020736694336
53025513000,-4.5909429900348186e-05,-0.00022387442004401237,-4.902266823592072e-07,-0.0003152423305436969,-0.00022341610747389495,-9.810224533081055
53039380000,-8.443072147201747e-05,-0.0001967916905414313,-1.193874481941748e-06,2.134963870048523e-05,-0.003373827086761594,-9.809832572937012
53046388000,-0.00016595283523201942,-0.0002535105450078845,6.2973951571621e-05,-0.00027206470258533955,0.0035273656249046326,-9.810229301452637
53053280000,-8.804097888059914e-05,-0.00019708719628397375,-3.8175087979652744e-07,0.00020765606313943863,-0.003256959607824683,-9.809775352478027
53060266000,-0.00019213354971725494,-0.00024233046860899776,6.072036558180116e-05,-0.00019512907601892948,0.0035378760658204556,-9.809791564941406
53074173000,-4.591204924508929e-05,-0.00022385975171346217,-4.827759880754456e-07,-0.00031517379102297127,-0.00022299698321148753,-9.810224533081055
53081075000,-0.0001893103471957147,-0.0002259039756609127,6.081738683860749e-05,0.0001727677881717682,0.0038490770384669304,-9.809941291809082
53088026000,-8.781935321167111e-05,-0.000196972003323026,-4.6743213033551e-07,3.143702633678913e-05,-0.003317032940685749,-9.809832572937012
53094999000,-4.515721229836345e-05,-0.00020194430544506758,-9.81734160632186e-07,-0.00015998032176867127,-0.00022855530551169068,-9.81063175201416
53101883000,-0.0001897293550428003,-0.0002478351816534996,6.123439379734918e-05,-0.0001363479532301426,0.0038629532791674137,-9.809128761291504
53115805000,-0.00019017198064830154,-0.00022531590366270393,6.078014484955929e-05,-1.9253231585025787e-05,0.003451862372457981,-9.810999870300293
53122722000,-8.78832652233541e-05,-0.0001969531294889748,-4.599810949912353e-07,1.6649020835757256e-05,-0.003327589947730303,-9.809835433959961
53129731000,-0.0001644207804929465,-0.0002583685563877225,6.345818110276014e-05,-0.0003307985607534647,0.003469701623544097,-9.81019115447998
53136608000,-8.807556878309697e-05,-0.00019706308376044035,-3.4449755048626685e-07,0.00025621941313147545,-0.0032547926530241966,-9.809813499450684
53150504000,-0.00019587017595767975,-0.0002375022741034627,6.307109288172796e-05,-6.765313446521759e-05,0.004088888876140118,-9.809500694274902
53157490000,-8.830653678160161e-05,-0.0001967864081962034,-4.1527425764797954e-07,0.00013401731848716736,-0.0034254060592502356,-9.810037612915039
53164397000,-0.0001596763322595507,-0.0002639252634253353,6.111116817919537e-05,-0.0003465837799012661,0.003348180092871189,-9.81002140045166
53171351000,-8.9386579929851e-05,-0.0001922564988490194,-8.585315640630142e-07,0.00031375978142023087,-0.003143107518553734,-9.810018539428711
53185237000,-8.846106356941164e-05,-0.0001967685529962182,-4.003723574896867e-07,0.00011800648644566536,-0.0034360422287136316,-9.810041427612305
53192254000,-3.87985201086849e-05,-0.00021248057601042092,-2.83333952211251e-06,-0.00022730266209691763,-0.00035359413595870137,-9.8104248046875
53199125000,-0.00019587801943998784,-0.00023745826911181211,6.310462049441412e-05,-1.671304926276207e-05,0.00409223698079586,-9.809538841247559
53206054000,-8.836521010380238e-05,-0.00019679685647133738,-4.040983014874655e-07,0.00013363594189286232,-0.003426266135647893,-9.810036659240723
53213073000,-0.00015733393956907094,-0.00024700930225662887,6.111879338277504e-05,-0.0002431785687804222,0.00333666754886508,-9.810389518737793
53226983000,-7.823876512702554e-05,-0.0002023174165515229,-9.07109040326759e-07,-0.00021356204524636269,-3.457366256043315e-05,-9.809959411621094
53233836000,-0.00016192178009077907,-0.0002416516945231706,6.351795309456065e-05,-9.902985766530037e-05,0.0035964823327958584,-9.810563087463379
53240853000,-8.785186219029129e-05,-0.00019712916400749236,-4.1900489122781437e-07,0.00015597348101437092,-0.0032471211161464453,-9.809441566467285
53247786000,-0.00015889480710029602,-0.00024198989558499306,6.0615937400143594e-05,-0.0001849224790930748,0.003345460630953312,-9.810425758361816
53254683000,-8.746843377593905e-05,-0.00019724243611562997,-4.413592762375629e-07,0.00010784226469695568,-0.0031416944693773985,-9.80957317352295
53268615000,-8.836521010380238e-05,-0.00019679685647133738,-4.040983014874655e-07,0.00011747051030397415,-0.003438991727307439,-9.810039520263672
53275629000,-3.8771802792325616e-05,-0.00021246068354230374,-2.822163423843449e-06,-0.00022680909023620188,-0.00035271112574264407,-9.810425758361816
53284856000,-0.0006277784705162048,-0.00024837389355525374,0.00011159076530020684,0.002053231932222843,0.008067362941801548,-9.809441566467285
53291529000,-0.00019566278206184506,-0.00011088946484960616,2.07701505132718e-05,0.0004156404174864292,-0.006404088344424963,-9.812028884887695
53298401000,0.00026607047766447067,-0.0001402973139192909,-6.751051842002198e-05,-0.001659441739320755,-0.00723537802696228,-9.809842109680176
53312347000,-0.00020383705850690603,-0.0002109815104631707,6.313191988738254e-05,0.0006685712141916156,0.0012026088079437613,-9.809969902038574
53319250000,-0.00011496958904899657,-0.00020751907140947878,-2.273078280268237e-06,-0.00017716176807880402,-0.003539221826940775,-9.808782577514648
53326230000,-0.00015933383838273585,-0.0002419017837382853,6.0661892348434776e-05,-9.518535807728767e-05,0.0032020644284784794,-9.811270713806152
53333113000,-8.746005187276751e-05,-0.00019728665938600898,-4.551278038888995e-07,0.00013039587065577507,-0.003216131590306759,-9.809571266174316
53347034000,-0.00015708364662714303,-0.0002472220512572676,6.116851727711037e-05,-8.438318036496639e-05,0.0034122660290449858,-9.810394287109375
53353923000,-8.756112947594374e-05,-0.00019722901924978942,-4.066987173700909e-07,0.0001896966714411974,-0.0032044206745922565,-9.809611320495605
53360987000,-0.00019690420594997704,-0.00023679375590290874,6.307594594545662e-05,-0.00015286775305867195,0.003590831533074379,-9.80996036529541
53367898000,-8.830861770547926e-05,-0.00019677197269629687,-4.06696216259661e-07,0.0001438460312783718,-0.0035072541795670986,-9.810039520263672
53374853000,-4.0382903534919024e-05,-0.00020749590476043522,-3.3236894978472264e-06,-0.0001501212827861309,-0.0004179650277364999,-9.810463905334473
53388665000,-8.73168755788356e-05,-0.00019673137285280973,-5.892363219572871e-07,0.00020837970077991486,-0.0035010885912925005,-9.810075759887695
53395745000,-0.0001880244817584753,-0.0002303973597008735,6.122821650933474e-05,-0.00012001884169876575,0.0034673744812607765,-9.810121536254883
53402547000,-8.790947322268039e-05,-0.00019697325478773564,-4.5512615542975254e-07,9.738956578075886e-05,-0.0033847875893115997,-9.809876441955566
53409618000,-0.00015967845683917403,-0.0002639105950947851,6.113119889050722e-05,-0.00031560519710183144,0.0032867102418094873,-9.810023307800293
53423384000,-4.62649913970381e-05,-0.0002235747524537146,-5.260502575765713e-07,-0.00042106976616196334,-0.000470138737000525,-9.810449600219727
53430402000,-0.0001584057172294706,-0.00024252338334918022,6.070659583201632e-05,9.777117520570755e-05,0.0035842086654156446,-9.81020736694336
53437289000,-0.00011514646757859737,-0.00018054773681797087,-9.989283853428788e-07,0.00023041386157274246,-0.0030727367848157883,-9.809304237365723
53444358000,-0.00016466484521515667,-0.0002581851149443537,6.343345739878714e-05,-0.0003782103303819895,0.0032766489312052727,-9.810454368591309
53451222000,-8.966523455455899e-05,-0.00019204916316084564,-8.611626185484056e-07,0.00032861949875950813,-0.003322695614770055,-9.809852600097656
53465085000,-0.00019586713460739702,-0.00023751701519358903,6.309083983069286e-05,1.0699499398469925e-05,0.004034717567265034,-9.809540748596191
53471990000,-8.833273022901267e-05,-0.00019680653349496424,-3.9179514033094165e-07,0.0001605660654604435,-0.0034930279944092035,-9.810035705566406
53479027000,-0.00016375610721297562,-0.00023645411420147866,6.297160143731162e-05,-0.0001548894215375185,0.003384726820513606,-9.810595512390137
53485948000,-0.00011456318316049874,-0.00020793093426618725,-2.179948069169768e-06,5.575758405029774e-05,-0.0032407082617282867,-9.808568000793457
53499845000,-8.794406312517822e-05,-0.000196949127712287,-4.47675461145991e-07,9.352806955575943e-05,-0.0033911867067217827,-9.80987548828125
53506720000,-4.593559424392879e-05,-0.00022389442892745137,-4.813483087673376e-07,-0.00028855091659352183,-0.0002885311550926417,-9.810226440429688
53513710000,-0.00018918731075245887,-0.0002259124885313213,6.081472020014189e-05,0.00019931327551603317,0.0037806392647325993,-9.80993938446045
53520613000,-8.784554665908217e-05,-0.00019699214317370206,-4.7002745873214735e-07,5.715969018638134e-05,-0.003384029259905219,-9.809834480285645
53527669000,-4.522060044109821e-05,-0.00020192554802633822,-9.804560932025197e-07,-0.00013336067786440253,-0.00029593633371405303,-9.81063175201416
53541533000,-0.00011496289516799152,-0.00020789627160411328,-2.0979910004825797e-06,0.0001933786552399397,-0.0032954602502286434,-9.80944538116455
53548421000,-0.00018832633213605732,-0.00022513838484883308,6.0356513131409883e-05,2.359505742788315e-06,0.003351016202941537,-9.810997009277344
53555371000,-8.780314237810671e-05,-0.00019706024613697082,-4.73753061669413e-07,4.577520303428173e-05,-0.0033653760328888893,-9.809837341308594
53562402000,-0.00016447895905002952,-0.000258378975559026,6.346325244521722e-05,-0.0003033149987459183,0.003403619397431612,-9.810192108154297
53576277000,-7.119648216757923e-05,-0.0001908755803015083,-3.219286554667633e-06,-4.921347135677934e-05,-0.00023170531494542956,-9.81019401550293
53583144000,-0.00016148074064403772,-0.00025855586864054203,6.287465657806024e-05,-0.00028045009821653366,0.003613377921283245,-9.809992790222168
53590074000,-8.952172356657684e-05,-0.00019217496446799487,-8.64888534124475e-07,0.0003468682989478111,-0.0032720528542995453,-9.80985164642334
53597086000,-0.000192050269106403,-0.0002422855468466878,6.0695456340909004e-05,-0.00021760840900242329,0.0034668922889977694,-9.809752464294434
53603975000,-8.812792657408863e-05,-0.00019693651120178401,-4.10422302365987e-07,0.0001507950946688652,-0.0033942139707505703,-9.81020736694336
53617882000,-8.810960571281612e-05,-0.00019703921861946583,-3.470927936177759e-07,0.0002823865506798029,-0.0033234497532248497,-9.809813499450684
53624888000,-7.116192136891186e-05,-0.00019089967827312648,-3.2230120723397704e-06,-4.9603317165747285e-05,-0.00023294285347219557,-9.81019401550293
53631805000,-0.00016134089673869312,-0.00024185092479456216,6.344469147734344e-05,-0.00017108535394072533,0.0036435830406844616,-9.810361862182617
53638683000,-8.7829859694466e-05,-0.00019708015315700322,-4.104231550172699e-07,0.00018772459588944912,-0.003306265687569976,-9.809444427490234
53652585000,-8.790686842985451e-05,-0.00019698792311828583,-4.700274018887285e-07,4.588929004967213e-05,-0.0033890223130583763,-9.809839248657227
53659637000,-4.5914086513221264e-05,-0.00022384518524631858,-4.776228479386191e-07,-0.00028784837923012674,-0.0002869505842681974,-9.810227394104004
53666472000,-0.00018924598407465965,-0.00022592293680645525,6.0822170780738816e-05,0.0001990138553082943,0.0037810341455042362,-9.80993938446045
53673455000,-8.781620999798179e-05,-0.00019698690448421985,-4.6257690655693295e-07,5.7193683460354805e-05,-0.0033804909326136112,-9.809834480285645
53687351000,-8.959349361248314e-05,-0.00019211205653846264,-8.686134833624237e-07,0.00033595506101846695,-0.0032950621098279953,-9.809849739074707
53694300000,-0.00019040663028135896,-0.0002472599153406918,6.120207399362698e-05,-0.0002693349961191416,0.003464555134996772,-9.809717178344727
53701206000,-8.821071241982281e-05,-0.00019698153482750058,-3.8062006524341996e-07,0.00020114891231060028,-0.003391101723536849,-9.810246467590332
53708207000,-7.125515548978001e-05,-0.00019088602857664227,-3.215561264369171e-06,-5.1728071412071586e-05,-0.00023240770678967237,-9.810196876525879
53715119000,-0.00016380060696974397,-0.0002587878261692822,6.34558018646203e-05,-0.00027451012283563614,0.003655737265944481,-9.809993743896484
53729028000,-0.00015888907364569604,-0.00024201924679800868,6.0624643083428964e-05,-0.00015993486158549786,0.003272842150181532,-9.810423851013184
53735924000,-9.391727508045733e-05,-0.00018670740246307105,1.407563672728429e-06,0.0001960329245775938,-0.003093476640060544,-9.80978012084961
53742945000,-6.816122913733125e-05,-0.00024016252427827567,-4.5941060307086445e-06,-0.00042170094093307853,-0.00043080977047793567,-9.809014320373535
53749818000,-0.00019650884496513754,-0.00023731357941869646,6.32137744105421e-05,0.00018487079069018364,0.003941596485674381,-9.810748100280762
53763734000,-0.0001897639740491286,-0.00022539470228366554,6.072532050893642e-05,-7.236097007989883e-05,0.003454100340604782,-9.810160636901855
53770676000,-8.789640560280532e-05,-0.0001970465964404866,-4.7002762926240393e-07,4.562875255942345e-05,-0.003389648860320449,-9.809839248657227
53777663000,-4.354238626547158e-05,-0.00020692398538812995,-4.73836990977361e-07,-0.0001843137142714113,-0.00029827660182490945,-9.81059455871582
53784547000,-0.0001873597939265892,-0.0002308994298800826,6.125801155576482e-05,4.3975189328193665e-05,0.003785938723012805,-9.809534072875977
53791572000,-8.793096640147269e-05,-0.00019702249846886843,-4.3649987446769956e-07,0.00010889442637562752,-0.003376210806891322,-9.809873580932617
53805364000,-8.73574463184923e-05,-0.00017510908946860582,-8.499259820382576e-07,0.00043676956556737423,-0.0033335641492158175,-9.81021785736084
53812381000,-0.00019095922471024096,-0.0002692906418815255,6.162295176181942e-05,-0.0005296522285789251,0.003479121020063758,-9.808941841125488
53819276000,-8.845850243233144e-05,-0.0001969500444829464,-2.949379904748639e-07,0.00035772472620010376,-0.003390143858268857,-9.81065559387207
53826335000,-7.119648216757923e-05,-0.0001908755803015083,-3.211835974070709e-06,-5.246605724096298e-05,-0.00023837736807763577,-9.810193061828613
53833154000,-0.00016301909636240453,-0.00023685248743277043,6.296042556641623e-05,-0.00012041209265589714,0.0036459797993302345,-9.810399055480957
53847137000,-0.00015769546735100448,-0.000246846757363528,6.118341843830422e-05,-0.00013476330786943436,0.0032047596760094166,-9.811229705810547
53854002000,-9.400788985658437e-05,-0.00018670839199330658,1.4261902379075764e-06,0.0002431483007967472,-0.003096440341323614,-9.809814453125
53861054000,-6.57894997857511e-05,-0.00022324132442008704,-4.579143933369778e-06,-0.0003187072870787233,-0.0004441071941982955,-9.809381484985352
53867876000,-0.0001962877286132425,-0.00023736497678328305,6.31653456366621e-05,8.040620014071465e-05,0.003949185833334923,-9.810379028320312
53874866000,-8.830861770547926e-05,-0.00019677197269629687,-3.9552034536427527e-07,0.00015654973685741425,-0.003501100232824683,-9.810035705566406
53888718000,-9.23323241295293e-05,-0.00019169217557646334,1.9141828033752972e-06,0.00014513707719743252,-0.0030951679218560457,-9.809741973876953
53895702000,-0.0001884210214484483,-0.00023021074593998492,6.123566708993167e-05,-0.0001182106789201498,0.003354127984493971,-9.809957504272461
53902616000,-8.800273644737899e-05,-0.0001969595905393362,-4.364995618288958e-07,9.303889237344265e-05,-0.003389065619558096,-9.80987548828125
53909617000,-3.87659965781495e-05,-0.00021249015117064118,-2.820795771185658e-06,-0.0001962044625543058,-0.0004143763508182019,-9.810426712036133
53923425000,-8.831126615405083e-05,-0.00019675728981383145,-3.992455788193183e-07,0.00016003428027033806,-0.0034941029734909534,-9.810035705566406
53930402000,-0.0001637828245293349,-0.00023647400666959584,6.29641508567147e-05,-0.0001552714966237545,0.0033849633764475584,-9.81059455871582
53937324000,-0.00011449928570073098,-0.00020794982265215367,-2.1948494577372912e-06,5.602533929049969e-05,-0.003241253085434437,-9.80856704711914
53944350000,-3.914945409633219e-05,-0.00021237687906250358,-2.7537396363186417e-06,-0.00011894101044163108,-0.00048427071305923164,-9.81126594543457
53951262000,-0.00019587759743444622,-0.00023745834187138826,6.309456512099132e-05,6.2426552176475525e-06,0.004017545375972986,-9.809537887573242
53958188000,-8.835684275254607e-05,-0.00019684110884554684,-4.0297115333487454e-07,0.0001592612825334072,-0.0034939819015562534,-9.810036659240723
53972051000,-0.00011992773215752095,-0.0001756333076627925,-8.238162081397604e-07,0.0003299834206700325,-0.0030211107805371284,-9.809383392333984
53979076000,-4.623044515028596e-05,-0.00022359885042533278,-5.26050371263409e-07,-0.0004202921118121594,-0.00046593931620009243,-9.810450553894043
53985936000,-0.00018760233069770038,-0.00023089724709279835,6.132507405709475e-05,0.0001419922336935997,0.003775850171223283,-9.809904098510742
53992927000,-8.793880988378078e-05,-0.00019697849347721785,-4.476755748328287e-07,0.00010826205834746361,-0.0033810660243034363,-9.809873580932617
53999833000,-0.00015967321814969182,-0.0002639399317558855,6.112002301961184e-05,-0.0003157705068588257,0.0032866126857697964,-9.810022354125977
54013831000,-0.0001968377036973834,-0.0002368272835155949,6.303496775217354e-05,-0.00020452169701457024,0.003582655917853117,-9.809920310974121
54020674000,-8.836468623485416e-05,-0.00019679710385389626,-4.1042153497983236e-07,0.00014386791735887527,-0.003504768945276737,-9.810040473937988
54027727000,-4.518864443525672e-05,-0.0002019349776674062,-9.69280222307134e-07,-0.00013892902643419802,-0.00030380807584151626,-9.810630798339844
54034612000,-0.00018808263121172786,-0.00025282433489337564,6.173476867843419e-05,-0.00016123801469802856,0.0037917406298220158,-9.809091567993164
54048445000,-0.0001580678508616984,-0.00024662556825205684,6.116106669651344e-05,-0.00022607739083468914,0.0030172825790941715,-9.811490058898926
54055372000,-8.752656867727637e-05,-0.00019725313177332282,-4.253253109709476e-07,0.00017434870824217796,-0.003217879217118025,-9.809611320495605
54062396000,-3.8704703911207616e-05,-0.00021249434212222695,-2.817070480887196e-06,-0.00018981596804223955,-0.00040971350972540677,-9.810425758361816
54069271000,-0.0001958990906132385,-0.00023750758555252105,6.31057409918867e-05,9.599607437849045e-06,0.004024820402264595,-9.809537887573242
54076285000,-8.833273022901267e-05,-0.00019680653349496424,-4.104215918232512e-07,0.00015990529209375381,-0.0034942899364978075,-9.810038566589355
54090105000,-9.388793841935694e-05,-0.00018670216377358884,1.4075635590415914e-06,0.00019582081586122513,-0.003092807251960039,-9.809778213500977
54097092000,-0.00018664065282791853,-0.0002746659447439015,5.933932334301062e-05,-0.0004382762126624584,0.003256948199123144,-9.808979034423828
54104008000,-8.983605948742479e-05,-0.00019210990285500884,-8.01557973773015e-07,0.00041080242954194546,-0.0032853828743100166,-9.810859680175781
54111037000,-7.828068919479847e-05,-0.0002022494882112369,-9.096415283238457e-07,-0.00019152037566527724,-0.00011288325913483277,-9.809954643249512
54124876000,-8.752394933253527e-05,-0.00019726780010387301,-4.1787478721744264e-07,0.0001894598826766014,-0.0032037403434515,-9.809610366821289
54131797000,-7.839541649445891e-05,-0.00020228508219588548,-8.686633350407647e-07,-0.00013618136290460825,-9.770796896191314e-05,-9.809996604919434
54138709000,-0.00015873249503783882,-0.00024221837520599365,6.067306821933016e-05,-3.399304114282131e-05,0.003413913305848837,-9.810432434082031
54145717000,-8.743855869397521e-05,-0.0001972374302567914,-4.5140237148189044e-07,0.0001386580988764763,-0.003208758542314172,-9.809571266174316
54152667000,-0.00019687226449605078,-0.00023680318554397672,6.307222065515816e-05,-0.0001527559943497181,0.003592602675780654,-9.809961318969727
54166510000,-0.00015733868349343538,-0.000246979936491698,6.113498966442421e-05,-0.00021753204055130482,0.0032683839090168476,-9.810389518737793
54173428000,-8.754806185606867e-05,-0.00019730236090254039,-4.290507433779567e-07,0.0001842870842665434,-0.0032072372268885374,-9.809611320495605
54180502000,-4.7544643166475e-05,-0.00021894421661272645,-9.730664487506147e-07,-0.0002308411058038473,-0.00028107722755521536,-9.810262680053711
54187328000,-0.00019159358635079116,-0.00024280959041789174,6.079231025069021e-05,4.4988002628088e-05,0.0037889783270657063,-9.809534072875977
54194318000,-8.803469245322049e-05,-0.000196950146346353,-4.066971541760722e-07,0.00016212067566812038,-0.0033910402562469244,-9.810202598571777
54208194000,-8.828977297525853e-05,-0.00019670804613269866,-4.141465694829094e-07,0.00014414219185709953,-0.003506944514811039,-9.810038566589355
54215117000,-0.00015733344480395317,-0.0002470092731527984,6.11163632129319e-05,-0.0002179278526455164,0.0032683960162103176,-9.810389518737793
54222063000,-8.755328599363565e-05,-0.00019727302424144,-4.0669888790034747e-07,0.00018434366211295128,-0.0032059396617114544,-9.809613227844238
54229066000,-7.595980423502624e-05,-0.00018538275617174804,-8.797787813819014e-07,-3.2744064810685813e-05,-0.00011010585876647383,-9.810362815856934
54243088000,-8.780574717093259e-05,-0.00019704557780642062,-4.104230697521416e-07,0.00018375110812485218,-0.0033109616488218307,-9.80944538116455
54249829000,-0.0001572747714817524,-0.00024699882487766445,6.112753908382729e-05,-0.00020993221551179886,0.003275534138083458,-9.810388565063477
54256798000,-8.920219261199236e-05,-0.00019226933363825083,-9.356696750728588e-07,0.0002354579046368599,-0.003204538719728589,-9.809648513793945
54263770000,-7.827806985005736e-05,-0.0002022641565417871,-9.059162948688027e-07,-0.00018730989540927112,-0.00010169215238420293,-9.809959411621094
54277687000,-8.755068120080978e-05,-0.0001972876925719902,-4.290506865345378e-07,0.0001893665175884962,-0.0032051231246441603,-9.809609413146973
54284555000,-0.0001660906127654016,-0.0002534140949137509,6.296409264905378e-05,-0.0002470877952873707,0.0034071996342390776,-9.810227394104004
54291549000,-8.959609840530902e-05,-0.00019209738820791245,-8.872398780113144e-07,0.00028221495449543,-0.0033259629271924496,-9.80981159210205
54298474000,-0.00019528991833794862,-0.00024177331943064928,6.354902870953083e-05,-0.00025901198387145996,0.0035797622986137867,-9.80988597869873
54305387000,-8.60595318954438e-05,-0.0001798423327272758,-3.842837656975462e-07,0.0002979263663291931,-0.003513522446155548,-9.810445785522461
54319348000,-0.00019593365141190588,-0.00023748345847707242,6.309829041128978e-05,1.0180287063121796e-05,0.004028619732707739,-9.809540748596191
54326326000,-8.836206689011306e-05,-0.00019681177218444645,-4.029710112263274e-07,0.00016005290672183037,-0.003493848256766796,-9.810037612915039
54333296000,-0.0001572800101712346,-0.00024696948821656406,6.113126437412575e-05,-0.00021680467762053013,0.0032679629512131214,-9.810388565063477
54340227000,-8.752918802201748e-05,-0.00019723846344277263,-4.253252257058193e-07,0.0001845045480877161,-0.0032063722610473633,-9.809612274169922
54347193000,-7.353363616857678e-05,-0.00020782090723514557,-3.237973714931286e-06,-0.00014763853687327355,-0.00021258831839077175,-9.809828758239746
54361091000,-8.800852810963988e-05,-0.0001970968587556854,-3.7317013834581303e-07,0.00023832940496504307,-0.0032937645446509123,-9.809775352478027
54367948000,-0.00017896310600917786,-0.00022467995586339384,5.812505696667358e-05,-9.450945071876049e-05,0.0032657161355018616,-9.81015396118164
54374933000,-9.457097621634603e-05,-0.00020868047431576997,1.8656930933502736e-06,-2.3955712094902992e-05,-0.003077586181461811,-9.809643745422363
54381891000,-4.086748231202364e-05,-0.00020732497796416283,-3.2529080726817483e-06,-4.079495556652546e-05,-0.0005208603106439114,-9.810664176940918
54395829000,-8.830601291265339e-05,-0.00019678664102684706,-3.9924569250615605e-07,0.00015973253175616264,-0.0034932319540530443,-9.810038566589355
54402674000,-0.0001597025548107922,-0.00026394514134153724,6.110512185841799e-05,-0.0003204881213605404,0.0032784678041934967,-9.81002140045166
54409706000,-8.869817247614264e-05,-0.0001922097580973059,-1.0064505886475672e-06,0.00033773924224078655,-0.0032230555079877377,-9.810018539428711
54416597000,-0.0001967842545127496,-0.0002367874694755301,6.303124246187508e-05,-0.00020269444212317467,0.0035939414519816637,-9.809920310974121
54423512000,-8.839140355121344e-05,-0.00019681699632201344,-4.066963015247893e-07,0.00014390982687473297,-0.003503983374685049,-9.810041427612305
54437390000,-0.0001959577639354393,-0.00023751803382765502,6.310201570158824e-05,9.14745032787323e-06,0.004025116562843323,-9.809539794921875
54444428000,-8.836468623485416e-05,-0.00019679710385389626,-3.992456640844466e-07,0.00016029458492994308,-0.003494095755741,-9.810036659240723
54451289000,-0.0001573067274875939,-0.000246989366132766,6.112008850323036e-05,-0.0002169986255466938,0.0032682050950825214,-9.810389518737793
54458259000,-8.920479740481824e-05,-0.00019225466530770063,-9.244938041774731e-07,0.00023530423641204834,-0.0032044716645032167,-9.809649467468262
54465282000,-7.833413837943226e-05,-0.00020228928769938648,-8.91015133674955e-07,-0.00018750719027593732,-0.00010101396037498489,-9.809957504272461
54479118000,-8.758524199947715e-05,-0.0001972635800484568,-4.14149383232143e-07,0.00018976861611008644,-0.0032044907566159964,-9.809610366821289
54486018000,-0.00016609585145488381,-0.0002533847582526505,6.29715432296507e-05,-0.000247094314545393,0.0034068934619426727,-9.810226440429688
54493150000,-8.959871775005013e-05,-0.00019208271987736225,-8.872398211678956e-07,0.0002821194939315319,-0.0033255910966545343,-9.809812545776367
54499927000,-0.00019522862567100674,-0.0002417775394860655,6.355275399982929e-05,-0.00025921780616045,0.0035791818518191576,-9.809884071350098
54513855000,-3.854492388200015e-05,-0.00021254154853522778,-2.891576741603785e-06,-0.00030585183412767947,-0.0004151308676227927,-9.810054779052734
54520734000,-0.00019586975395213813,-0.00023750234686303884,6.30871145403944e-05,1.0455958545207977e-05,0.004028410650789738,-9.809541702270508
54527763000,-8.835946209728718e-05,-0.00019682644051499665,-3.955204874728224e-07,0.0001600487157702446,-0.0034931402187794447,-9.810035705566406
54534665000,-0.00015724022523500025,-0.0002470229519531131,6.110146205173805e-05,-0.00021724030375480652,0.003266825806349516,-9.810389518737793
54541614000,-8.755590533837676e-05,-0.0001972583559108898,-4.253253109709476e-07,0.00018482841551303864,-0.003205258399248123,-9.809611320495605
54555456000,-0.00015714752953499556,-0.00024720319197513163,6.116106669651344e-05,-8.488539606332779e-05,0.0034123342484235764,-9.810395240783691
54562458000,-8.755328599363565e-05,-0.00019727302424144,-4.178747587957332e-07,0.00018944358453154564,-0.0032046122942119837,-9.809609413146973
54569360000,-0.00019690944463945925,-0.00023676441924180835,6.305731949396431e-05,-0.00015251198783516884,0.003590706270188093,-9.80996036529541
54576452000,-8.842596434988081e-05,-0.00019679289835039526,-4.0297086911778024e-07,0.0001438157632946968,-0.003505764529109001,-9.810040473937988
54590173000,-0.00019425539358053356,-0.00024248191039077938,6.357883103191853e-05,-9.254505857825279e-05,0.004019604064524174,-9.809463500976562
54597163000,-8.842596434988081e-05,-0.00019679289835039526,-3.69443256431623e-07,0.00021090754307806492,-0.0034892712719738483,-9.810075759887695
54604153000,-0.00015727218124084175,-0.00024701349320821464,6.11163632129319e-05,-0.00021705334074795246,0.0032665710896253586,-9.81038761138916
54611149000,-8.919957326725125e-05,-0.00019228400196880102,-9.133179901255062e-07,0.00023529957979917526,-0.0032038534991443157,-9.809650421142578
54618158000,-0.00019684815197251737,-0.00023676861019339412,6.304614362306893e-05,-0.00020333053544163704,0.0035871705040335655,-9.809922218322754
54625211000,-8.83699394762516e-05,-0.00019676775264088064,-4.029708406960708e-07,0.0001408096868544817,-0.0034360187128186226,-9.810040473937988
54639047000,-0.00019500806229189038,-0.0002380904188612476,6.309083983069286e-05,6.103049963712692e-05,0.004385998472571373,-9.809555053710938
54646038000,-8.830339356791228e-05,-0.00019680130935739726,-3.9924577777128434e-07,0.00017391424626111984,-0.0034814688842743635,-9.810036659240723
54652901000,-4.75231499876827e-05,-0.00021889497293159366,-9.80516801973863e-07,-0.00024171732366085052,-0.00029244041070342064,-9.810261726379395
54659838000,-0.00019388091459404677,-0.00022030127001926303,6.314305937848985e-05,0.00015953043475747108,0.003891099477186799,-9.81006908416748
54673710000,-0.0001572747714817524,-0.00024699882487766445,6.110891263233498e-05,-0.0002161709126085043,0.0032721187453716993,-9.81039047241211
54680681000,-8.758262265473604e-05,-0.00019727824837900698,-4.104241781988094e-07,0.00018465658649802208,-0.0032051829621195793,-9.809612274169922
54687576000,-0.00019696287927217782,-0.0002368042041780427,6.306477007456124e-05,-0.00015266332775354385,0.0035907120909541845,-9.809961318969727
54694624000,-8.837254426907748e-05,-0.00019675306975841522,-3.917949129572662e-07,0.00014382414519786835,-0.0035065803676843643,-9.810039520263672
54701498000,-3.879271389450878e-05,-0.00021251004363875836,-2.82452106148412e-06,-0.00020121046691201627,-0.0004207838501315564,-9.810425758361816
54715509000,-8.833273022901267e-05,-0.00019680653349496424,-3.9179514033094165e-07,0.00015990622341632843,-0.0034888912923634052,-9.810035705566406
54722433000,-0.0001553656766191125,-0.0002468400925863534,6.0643244069069624e-05,-0.0002220291644334793,0.0032295610290020704,-9.81038761138916
54729442000,-8.798151975497603e-05,-0.00019232416525483131,-1.159188627752883e-06,0.00023445487022399902,-0.0031729417387396097,-9.809652328491211
54736348000,-0.00019057435565628111,-0.00023630094074178487,6.156347080832347e-05,-0.00021533225663006306,0.0034958727192133665,-9.809920310974121
54743304000,-8.803729724604636e-05,-0.0001969354780158028,-4.066971257543628e-07,0.00015626894310116768,-0.0033932977821677923,-9.810043334960938
54757107000,-0.0001580672396812588,-0.00024255386961158365,6.066188871045597e-05,3.2549723982810974e-06,0.003629670012742281,-9.809836387634277
54764149000,-9.226839756593108e-05,-0.00019171104941051453,1.9067321090915357e-06,0.0001584568526595831,-0.0030856418889015913,-9.80974006652832
54771042000,-0.00016393944679293782,-0.0002362748928135261,6.297160143731162e-05,-0.00015029939822852612,0.0032865172252058983,-9.810426712036133
54778386000,-0.00011455533967819065,-0.00020797495380975306,-2.1985745206620777e-06,5.01174945384264e-05,-0.003157803788781166,-9.808606147766113
54792081000,-5.036561924498528e-05,-0.00021449761698022485,1.3329078001333983e-06,-0.00012434064410626888,0.000576990598347038,-9.810251235961914
54799040000,-0.00022344430908560753,-0.00024804906570352614,6.14107193541713e-05,6.562564522027969e-06,0.0038994746282696724,-9.808694839477539
54806073000,-0.0002072380593745038,-0.00023112859344109893,6.358633982017636e-05,0.00021035988174844533,0.00011075371003244072,-9.810839653015137
54813317000,-8.855063060764223e-05,-0.00019660319958347827,-4.5884939936513547e-07,7.2442926466465e-06,-0.0036567177157849073,-9.81003189086914
54826756000,-0.0001959258079295978,-0.000237527463468723,6.311319157248363e-05,9.005889296531677e-06,0.00402513612061739,-9.809540748596191
54833755000,-8.836468623485416e-05,-0.00019679710385389626,-3.8434450289059896e-07,0.00016008084639906883,-0.0034937134478241205,-9.810036659240723
54842482000,-0.0006867182673886418,-0.0002482041600160301,0.00012242588854860514,0.0024824868887662888,0.010259121656417847,-9.80866813659668
54849264000,-0.0002828348660841584,-9.25334170460701e-05,2.9485629056580365e-05,0.0004596286453306675,-0.0063592554070055485,-9.811565399169922
54863210000,-9.028671775013208e-05,-0.00028636743081733584,5.4805499530630186e-05,-0.0006769755855202675,0.007651790510863066,-9.808734893798828
54870113000,-0.0001974170154426247,-0.00022152198653202504,6.127296364866197e-05,0.0006106147775426507,0.0010947183473035693,-9.809767723083496
54877129000,-8.797543705441058e-05,-0.00019677310774568468,-5.072794238003553e-07,-4.780665040016174e-05,-0.0035047060810029507,-9.809825897216797
54883904000,-4.5967550249770284e-05,-0.00022388498473446816,-4.77622904782038e-07,-0.0002923311840277165,-0.0002869529998861253,-9.810229301452637
54897876000,-8.782143413554877e-05,-0.00019695756782311946,-4.6630208316855715e-07,5.770009011030197e-05,-0.0033844548743218184,-9.809834480285645
54904755000,-0.0001620511757209897,-0.00024143264454323798,6.346704321913421e-05,-0.00020121969282627106,0.0033897310495376587,-9.810558319091797
54911784000,-8.789118146523833e-05,-0.000197075933101587,-4.066977794536797e-07,0.00017807353287935257,-0.0033147288486361504,-9.80944538116455
54918640000,-0.00018815751536749303,-0.00023033027537167072,6.122821650933474e-05,-0.00011511333286762238,0.0034591336734592915,-9.810123443603516
