sim_time_ns,gyro_x,gyro_y,gyro_z,accel_x,accel_y,accel_z
78821306000,-0.0005687764496542513,-0.00010767090134322643,0.0003343639546073973,-0.3013988733291626,0.8507940769195557,-9.77568244934082
78835083000,4.903131048195064e-05,-0.0004199159156996757,0.0003203866071999073,-0.29988837242126465,0.8541831374168396,-9.774473190307617
78842087000,0.0002260457695228979,-0.00043631839798763394,0.0003013555542565882,-0.2998693883419037,0.8522268533706665,-9.770824432373047
78848987000,0.0001671074132900685,-0.00021267164265736938,0.0002852569450624287,-0.29806092381477356,0.8545204401016235,-9.768468856811523
78855994000,0.002870469819754362,0.0009874082170426846,-0.0027750423178076744,-0.32721787691116333,0.8928776979446411,-9.756929397583008
78862879000,-0.0013619523961097002,-0.003587876446545124,0.002810467965900898,-0.279039204120636,0.7512702345848083,-9.740230560302734
78876803000,-0.0015983408084139228,0.0012325040297582746,0.00016257399693131447,-0.27471354603767395,0.8316158056259155,-9.77673053741455
78883701000,-0.0013183096889406443,0.0006996768061071634,0.00036898674443364143,-0.3008069694042206,0.846225917339325,-9.775562286376953
78890915000,-0.0009013283415697515,0.000399346521589905,0.0003597601316869259,-0.301688551902771,0.850405216217041,-9.777352333068848
78897573000,-0.00045793617027811706,0.00010583133553154767,0.0003288141742814332,-0.3018862307071686,0.8506714105606079,-9.777575492858887
78911487000,0.0002457787049934268,-0.0003605611273087561,0.00029601261485368013,-0.3013233244419098,0.8522186279296875,-9.774801254272461
78918424000,0.0004356294812168926,-0.000461810763226822,0.00028536273748613894,-0.3002161383628845,0.851822018623352,-9.771812438964844
78925396000,0.003026566468179226,0.001080439193174243,-0.0028774242382496595,-0.32603374123573303,0.8976733684539795,-9.759095191955566
78932307000,-0.001200138358399272,-0.0037294533103704453,0.002778578083962202,-0.27980273962020874,0.7487798929214478,-9.73968505859375
78939288000,0.0017811270663514733,0.001600929768756032,-0.002211138606071472,-0.3100242018699646,0.9505645036697388,-9.756301879882812
78953189000,-0.0013054735027253628,0.0006363820284605026,0.00036620363243855536,-0.3008512258529663,0.8460566997528076,-9.775328636169434
78960092000,-0.0008951559429988265,0.0003419998101890087,0.0003603243676479906,-0.30170658230781555,0.8504222631454468,-9.777030944824219
78967045000,-0.00046074995771050453,7.127571734599769e-05,0.0003285785496700555,-0.30180785059928894,0.850872278213501,-9.777363777160645
78974079000,-7.350480882450938e-05,-0.000171406107256189,0.00030258839251473546,-0.3015846610069275,0.8510442972183228,-9.776355743408203
78980960000,0.00023556231462862343,-0.0003712668549269438,0.0002883051347453147,-0.3009777367115021,0.8511055707931519,-9.7745361328125
78994814000,0.002992078196257353,0.001096006017178297,-0.002876472659409046,-0.3259647488594055,0.8977687358856201,-9.759135246276855
79001752000,-0.001217536861076951,-0.0037260667886584997,0.0027789361774921417,-0.279938280582428,0.7486969232559204,-9.73987102508545
79008759000,-0.000913134019356221,0.00017914531053975224,0.0009318423690274358,-0.28295978903770447,0.9048259258270264,-9.764307975769043
79015733000,0.0018599051982164383,0.002728051505982876,-0.002804855816066265,-0.3257143199443817,0.9120525121688843,-9.769001960754395
79029586000,-0.0008812135201878846,0.0001488924608565867,0.0003216187178622931,-0.3008134961128235,0.8446006774902344,-9.774534225463867
79036500000,-0.0005646328208968043,-0.00011851629824377596,0.0003330800973344594,-0.30140653252601624,0.8508241176605225,-9.775609016418457
79043430000,-0.00021125696366652846,-0.0005267829401418567,0.00041550438618287444,-0.301654189825058,0.8481485843658447,-9.773314476013184
79050367000,4.876567982137203e-05,-0.0004213904030621052,0.0003184375527780503,-0.2998979985713959,0.8542091846466064,-9.774442672729492
79064260000,0.00016937186592258513,-0.00021596183069050312,0.00028314610244706273,-0.29809167981147766,0.8545255661010742,-9.768509864807129
79071241000,0.0028757438994944096,0.000979842385277152,-0.002776897745206952,-0.32728689908981323,0.8928271532058716,-9.75693416595459
79078147000,-0.0014215565752238035,-0.003665527794510126,0.0028850892558693886,-0.2786175608634949,0.7499750852584839,-9.739986419677734
79085088000,0.0016814132686704397,0.001740854000672698,-0.0021938253194093704,-0.3105319142341614,0.951907753944397,-9.758472442626953
79092079000,-0.0015603905776515603,0.0012220541248098016,0.00015429529594257474,-0.2752651870250702,0.8314924240112305,-9.777032852172852
79106033000,-0.000863300752826035,0.00037207105197012424,0.0003584701626095921,-0.30178046226501465,0.8503403067588806,-9.777109146118164
79112885000,-0.00043367815669626,9.352268534712493e-05,0.00032806306262500584,-0.30182456970214844,0.8508695363998413,-9.777453422546387
79119874000,-3.4355500247329473e-05,-0.0003622668737079948,0.00040453250403515995,-0.3019053339958191,0.8478664755821228,-9.774787902832031
79133761000,0.0004179542593192309,-0.00039676763117313385,0.00028501395718194544,-0.3001821041107178,0.8521673679351807,-9.771627426147461
79140662000,0.003018656512722373,0.0011217722203582525,-0.0028813027311116457,-0.32628118991851807,0.8975430130958557,-9.759275436401367
79147677000,-0.0011972575448453426,-0.003712643636390567,0.002776217181235552,-0.2799857556819916,0.7487139701843262,-9.739994049072266
79154546000,-0.0008959340630099177,0.0001796131837181747,0.0009288339060731232,-0.28301146626472473,0.9048429727554321,-9.764336585998535
79161483000,0.001798305194824934,0.00266123260371387,-0.002730273175984621,-0.3252298831939697,0.9108560085296631,-9.768811225891113
79175369000,-0.0008850132580846548,0.00017135386588051915,0.0003148923860862851,-0.3008847236633301,0.8447266817092896,-9.774552345275879
79182369000,-0.0005663404008373618,-0.00010520219802856445,0.0003272670728620142,-0.30146053433418274,0.8507198095321655,-9.775583267211914
79189267000,-0.00021419906988739967,-0.0005165289621800184,0.00041017914190888405,-0.30165812373161316,0.848112940788269,-9.773338317871094
79196221000,4.6007626224309206e-05,-0.0004153311892878264,0.0003131864359602332,-0.2999274730682373,0.8541571497917175,-9.774456977844238
79203247000,0.00023137890093494207,-0.00044240738498046994,0.00029321538750082254,-0.29997849464416504,0.8521493673324585,-9.771080017089844
79217079000,-0.0012722851242870092,-0.0037396205589175224,0.00277921324595809,-0.28009775280952454,0.7482868432998657,-9.74067497253418
79224005000,-0.000948650820646435,0.00018884276505559683,0.0009308845037594438,-0.2828231155872345,0.9048036336898804,-9.765235900878906
79230996000,0.0018823554273694754,0.002702451543882489,-0.0028092623688280582,-0.32597020268440247,0.9116624593734741,-9.769432067871094
79237902000,-0.0010370623786002398,0.0008158099371939898,1.5932891983538866e-05,-0.2790996730327606,0.8177990913391113,-9.778681755065918
79244816000,-0.0008700885809957981,0.00016510393470525742,0.0003220778307877481,-0.3006807863712311,0.8446458578109741,-9.774285316467285
79258723000,-0.00020914411288686097,-0.0004943417152389884,0.00041702939779497683,-0.30163007974624634,0.8481603860855103,-9.773157119750977
79265865000,4.631327465176582e-05,-0.0003907742502633482,0.00032178088440559804,-0.29990947246551514,0.8541728258132935,-9.774324417114258
79272616000,0.00023443535610567778,-0.0004184901190456003,0.0002991309156641364,-0.30000683665275574,0.8522498607635498,-9.771262168884277
79279582000,0.0002622065076138824,-0.00034295168006792665,0.00030810621683485806,-0.29893749952316284,0.8525182008743286,-9.767348289489746
79293447000,-0.0012591120321303606,-0.003892055945470929,0.0028896958101540804,-0.2817108631134033,0.7434934973716736,-9.739522933959961
79300493000,0.0017150768544524908,0.001852259854786098,-0.0022894544526934624,-0.3093069791793823,0.9560587406158447,-9.758448600769043
79307381000,-0.0016400464810431004,0.0011023716069757938,0.00021736629423685372,-0.27507197856903076,0.8279178142547607,-9.776496887207031
79314374000,-0.0013088590931147337,0.0006327509181573987,0.00037149974377825856,-0.30113112926483154,0.8468543291091919,-9.775144577026367
79321266000,-0.0008930545300245285,0.00034926377702504396,0.0003609860432334244,-0.3016956150531769,0.8504847288131714,-9.776920318603516
79335161000,-7.174287748057395e-05,-0.00014907540753483772,0.00031202781246975064,-0.30170756578445435,0.8520078659057617,-9.776403427124023
79342059000,0.00024492410011589527,-0.0003384581068530679,0.00028990799910388887,-0.30108335614204407,0.8512188196182251,-9.774518966674805
79349088000,0.0004079021164216101,-0.0002269103133585304,0.00018344038107898086,-0.299826055765152,0.855067253112793,-9.773536682128906
79355996000,0.0030056550167500973,0.000949762761592865,-0.002829425036907196,-0.32673704624176025,0.893318235874176,-9.759331703186035
79369969000,0.0017589051276445389,0.001811826485209167,-0.002287185750901699,-0.30873793363571167,0.9568495750427246,-9.756720542907715
79376819000,-0.001578612718731165,0.0011802174849435687,0.00014355529856402427,-0.2752653956413269,0.8293856978416443,-9.775186538696289
79383869000,-0.0013300558784976602,0.0008411203743889928,0.00026321635232307017,-0.30053645372390747,0.8489869236946106,-9.776775360107422
79390672000,-0.0009595972369424999,0.0002354336902499199,0.00041805498767644167,-0.30197474360466003,0.84641432762146,-9.77595329284668
79397707000,-0.00044702072045765817,-0.00019199351663701236,0.0004380703321658075,-0.3025062084197998,0.8483262062072754,-9.775646209716797
79411509000,0.00023846696421969682,-0.0003319616662338376,0.0002923991996794939,-0.30092495679855347,0.8516567349433899,-9.77460765838623
79418577000,0.00032935600029304624,-0.0002830497978720814,0.00026463859830982983,-0.2993823289871216,0.8536816835403442,-9.7725248336792
79425399000,0.003057690104469657,0.000859332736581564,-0.002792003797367215,-0.32766905426979065,0.8926166892051697,-9.757819175720215
79432418000,-0.0006341242115013301,4.337896825745702e-05,-1.924146999954246e-05,-0.27263352274894714,0.8262331485748291,-9.766589164733887
79439319000,-0.0005560741410590708,-0.000526860763784498,0.00028488057432696223,-0.2998894453048706,0.8443764448165894,-9.769063949584961
79453272000,-0.00032072357134893537,-0.0004452428256627172,0.00032699850271455944,-0.2989470958709717,0.8520419597625732,-9.768898010253906
79460174000,-0.0002644566702656448,-0.00021490873768925667,0.0003018916177097708,-0.29802531003952026,0.8541148900985718,-9.769970893859863
79467190000,0.0025862939655780792,0.0011542830616235733,-0.0028737029060721397,-0.3271166980266571,0.8953467011451721,-9.761234283447266
79474023000,-0.0014203512109816074,-0.0037534257862716913,0.0027940236032009125,-0.28012195229530334,0.7475652098655701,-9.742755889892578
79487942000,0.0019017707090824842,0.0024764318950474262,-0.0026970100589096546,-0.32567891478538513,0.9084383249282837,-9.768648147583008
79494836000,-0.0016508486587554216,-0.0027736478950828314,0.002895412500947714,-0.2831360101699829,0.7483032941818237,-9.753119468688965
79501915000,-0.0008380174986086786,0.0006365767330862582,0.0009404924931004643,-0.28718382120132446,0.9020458459854126,-9.778777122497559
79508725000,0.002122279955074191,0.0027180016040802,-0.0027052978985011578,-0.32780441641807556,0.9074591398239136,-9.772506713867188
79515766000,-0.000861942011397332,0.0008701509796082973,0.000117638694064226,-0.2788049280643463,0.8192483186721802,-9.781042098999023
79529552000,-0.00036050810012966394,-5.742869689129293e-05,0.0003557840536814183,-0.30120527744293213,0.8539273738861084,-9.776663780212402
79536565000,-8.725125371711329e-05,-6.762541306670755e-05,0.00021711818408221006,-0.30136212706565857,0.855217695236206,-9.77651309967041
79543462000,0.00016928990953601897,-0.0004796047869604081,0.0002841003588400781,-0.3016212582588196,0.8489093780517578,-9.772380828857422
79550517000,0.00027573201805353165,-0.0005478544626384974,0.00030101113952696323,-0.29997625946998596,0.8518685102462769,-9.770162582397461
79564365000,0.002687945030629635,0.001323149655945599,-0.0028762531001120806,-0.324958860874176,0.9000562429428101,-9.758699417114258
79571249000,-0.0006827432662248611,-0.0003172616707161069,9.128277451964095e-05,-0.27611538767814636,0.8164187669754028,-9.764945983886719
79578161000,-0.0007397407898679376,-0.000464909098809585,0.00033096224069595337,-0.2979618012905121,0.8486024141311646,-9.769463539123535
79585231000,-0.0005694988649338484,-0.00045655693975277245,0.0003416792897041887,-0.29924476146698,0.8518524765968323,-9.770416259765625
79592094000,-0.0004195604124106467,-0.0004957033088430762,0.0004107533604837954,-0.2988891899585724,0.8506351709365845,-9.770048141479492
79606007000,0.0025830320082604885,0.0012156320735812187,-0.002849408658221364,-0.32590311765670776,0.8972070813179016,-9.76123046875
79612982000,-0.001413353718817234,-0.003674441482871771,0.002803956624120474,-0.28010842204093933,0.7479028701782227,-9.743204116821289
79619908000,-0.00102655787486583,0.0003113200655207038,0.000917881028726697,-0.28243380784988403,0.9059370160102844,-9.76828384399414
79626843000,0.0018791204784065485,0.0025792778469622135,-0.002731122775003314,-0.326337993144989,0.9083344340324402,-9.770173072814941
79640686000,-0.0008241394534707069,0.00019983435049653053,0.00034062511986121535,-0.30018162727355957,0.844880223274231,-9.773757934570312
79647666000,-0.0005071026389487088,-0.0002366983680985868,0.0004560170345939696,-0.3011854290962219,0.8478042483329773,-9.773270606994629
79654647000,-0.000215804684557952,-0.00017585376917850226,0.00035676860716193914,-0.3002312183380127,0.8543064594268799,-9.775198936462402
79661518000,-1.9786719349212945e-05,-0.00015814657672308385,0.0003008467028848827,-0.29992809891700745,0.854027509689331,-9.774635314941406
79668695000,0.00019838762818835676,-0.0004750360094476491,0.00038019727799110115,-0.3004476726055145,0.8490235805511475,-9.770927429199219
79682470000,-0.001298203133046627,-0.003818184370175004,0.00287518254481256,-0.27943673729896545,0.7472938299179077,-9.740489959716797
79689299000,0.001733563025481999,0.001495666103437543,-0.002112349960952997,-0.3098650574684143,0.9501681327819824,-9.756274223327637
79696227000,-0.002303787274286151,-0.0022841086611151695,0.0029890292789787054,-0.27898144721984863,0.7627173662185669,-9.750542640686035
79703241000,-0.0013008350506424904,0.0010745746549218893,0.0009833620861172676,-0.2881894111633301,0.9022996425628662,-9.780218124389648
79710132000,0.001788600580766797,0.00306997774168849,-0.0026859932113438845,-0.32859593629837036,0.9066380262374878,-9.77365779876709
79724011000,-0.0007614608621224761,0.0004158081137575209,0.00033446846646256745,-0.3020865023136139,0.8446582555770874,-9.77782917022705
79731050000,-0.00045547023182734847,-7.980625377967954e-05,0.0004165633872617036,-0.3021577298641205,0.8492259979248047,-9.77769947052002
79737971000,-4.518264904618263e-05,-0.0003157948958687484,0.0003253585018683225,-0.3025323152542114,0.852387547492981,-9.77667236328125
79744841000,0.00023416598560288548,-0.000516373896971345,0.00030049000633880496,-0.30126720666885376,0.8517062664031982,-9.774569511413574
79758753000,0.00022130309662315995,-0.000317628204356879,0.0002910166804213077,-0.29801052808761597,0.8549339771270752,-9.766966819763184
79765795000,0.002777417888864875,0.0010580368107184768,-0.0027876561507582664,-0.3264130651950836,0.8951590061187744,-9.756569862365723
79772657000,-0.0007014535367488861,-0.00026668881764635444,0.00011514908692333847,-0.2748744785785675,0.8195620179176331,-9.76375961303711
79779559000,-0.0007611305336467922,-0.0003854563692584634,0.000337962614139542,-0.2980425953865051,0.8490022420883179,-9.76916790008545
79786583000,-0.0005829152651131153,-0.00039206529618240893,0.00034683040576055646,-0.29947301745414734,0.8517933487892151,-9.770511627197266
79800496000,-0.00017595087410882115,-0.0003181165084242821,0.00033203724888153374,-0.2990585267543793,0.8520568609237671,-9.769949913024902
79807354000,0.0025067729875445366,0.0013430938124656677,-0.00287434970960021,-0.3254815340042114,0.8988583087921143,-9.7628173828125
79814313000,-0.0013503807131201029,-0.003968731965869665,0.0028981524519622326,-0.2817857265472412,0.7429060339927673,-9.74186897277832
79821284000,-0.0009735105559229851,0.00036235444713383913,0.0008614396792836487,-0.28200966119766235,0.9099173545837402,-9.7673921585083
79835245000,-0.0010080086067318916,0.0008154100505635142,3.464995097601786e-05,-0.2786201536655426,0.8176665306091309,-9.778189659118652
79842137000,-0.0008457980584353209,0.0001922307419590652,0.0003438796557020396,-0.3003116846084595,0.8447520136833191,-9.773900032043457
79849265000,-0.0005401211674325168,-4.6965957153588533e-05,0.0003572694258764386,-0.30106326937675476,0.8509591817855835,-9.77501106262207
79856071000,-0.00020638789283111691,-0.0004272167570888996,0.00044063106179237366,-0.3012827932834625,0.8484441041946411,-9.77301025390625
79862948000,4.6886387281119823e-05,-0.00032798058236949146,0.0003449080395512283,-0.3000895082950592,0.8544894456863403,-9.77407169342041
79876803000,0.0028936415910720825,0.001147247152402997,-0.002849845215678215,-0.3261335492134094,0.8975716233253479,-9.75997257232666
79883896000,-0.0012606671079993248,-0.003706317162141204,0.002807885641232133,-0.27998921275138855,0.7485418319702148,-9.740769386291504
79890747000,-0.0009396588429808617,0.00020922161638736725,0.0009575901203788817,-0.2827771008014679,0.9049658179283142,-9.765131950378418
79897661000,0.0018864076118916273,0.0025341620203107595,-0.002681387821212411,-0.32601308822631836,0.9088395833969116,-9.767833709716797
79904645000,-0.0010654344223439693,0.0008906162111088634,5.964738011243753e-05,-0.27827736735343933,0.8208183646202087,-9.779317855834961
79918552000,-0.0006499809678643942,-8.506164886057377e-05,0.0004357037541922182,-0.3009125888347626,0.8496028184890747,-9.775046348571777
79925408000,-0.000260316242929548,-0.0002081224083667621,0.0003453196259215474,-0.3015437722206116,0.8526806831359863,-9.775065422058105
79932454000,-4.912239091936499e-05,-0.00021814712090417743,0.00029659789288416505,-0.3001599609851837,0.8537963628768921,-9.775153160095215
79939324000,0.0001890963176265359,-0.0005479181418195367,0.00037672772305086255,-0.30066460371017456,0.8488836288452148,-9.77129077911377
79946233000,0.002911429153755307,0.0010372463148087263,-0.0028532245196402073,-0.3265189826488495,0.8983730673789978,-9.760300636291504
79960130000,-0.0009291131282225251,0.00015528732910752296,0.0009521368774585426,-0.2826427221298218,0.9048802256584167,-9.76446533203125
79967112000,0.0018893873784691095,0.0025012928526848555,-0.00268079387024045,-0.3258776068687439,0.9087265729904175,-9.767046928405762
79974035000,-0.0010452563874423504,0.0006734943017363548,0.0001618927053641528,-0.278430700302124,0.8176858425140381,-9.777722358703613
79980987000,-0.0009596081799827516,0.00021842995192855597,0.00044560819515027106,-0.2994334101676941,0.846650242805481,-9.774715423583984
79994846000,-0.00025132932933047414,-9.413488442078233e-05,0.0003549417306203395,-0.30061641335487366,0.8545039892196655,-9.775810241699219
80001881000,4.3513820855878294e-05,-0.00024366503930650651,0.0003223403182346374,-0.30079081654548645,0.8517240881919861,-9.77385425567627
80008769000,0.00023628390044905245,-0.00014538568211719394,0.00020883588877040893,-0.29999569058418274,0.855078935623169,-9.774028778076172
80015768000,0.002960377838462591,0.0010610243771225214,-0.0028896478470414877,-0.3274401128292084,0.8944700956344604,-9.761221885681152
80022682000,-0.0012095414567738771,-0.0038281374145299196,0.0027882717549800873,-0.28010982275009155,0.7480903267860413,-9.740548133850098
80036641000,0.001872814493253827,0.002466602250933647,-0.002682982012629509,-0.325744092464447,0.9089343547821045,-9.766709327697754
80043466000,-0.0010695317760109901,0.0006455284310504794,0.00015724697732366621,-0.2784440517425537,0.8177464008331299,-9.777572631835938
80050497000,-0.0009870135691016912,0.00019563839305192232,0.0004410531255416572,-0.2994380295276642,0.8466431498527527,-9.774566650390625
80057370000,-0.0005916357040405273,-0.00015702785458415747,0.00046505749924108386,-0.30187731981277466,0.849331796169281,-9.773797988891602
80071302000,-5.7656630815472454e-05,-0.00011525683657964692,0.00029462462407536805,-0.3003109097480774,0.8538813591003418,-9.775167465209961
80078193000,0.0002450197353027761,-0.00038828683318570256,0.000296956131933257,-0.30127575993537903,0.8500874638557434,-9.771660804748535
80085244000,0.002928932197391987,0.0010764840990304947,-0.002868355717509985,-0.3265397548675537,0.8971017003059387,-9.761157989501953
80092115000,-0.0012271169107407331,-0.003779001533985138,0.0027886107563972473,-0.2800733149051666,0.7484762668609619,-9.74101734161377
80099075000,-0.0008902784902602434,0.00011470960453152657,0.0009408004698343575,-0.282958984375,0.904726505279541,-9.764411926269531
80112911000,-0.001058276742696762,0.0006663165986537933,0.00015427407925017178,-0.2784894108772278,0.8177036046981812,-9.777674674987793
80119971000,-0.0009125478100031614,0.0002820229856297374,0.0003606408427003771,-0.2999456822872162,0.8478813171386719,-9.774886131286621
80126800000,-0.0005826452397741377,-0.0001515903859399259,0.0004539735964499414,-0.3015761971473694,0.848236083984375,-9.773785591125488
80133807000,-0.00027755528572015464,-0.00011155239189974964,0.00034809528733603656,-0.30062347650527954,0.8543517589569092,-9.775762557983398
80140714000,-3.580498741939664e-08,-5.341599171515554e-05,0.00021372565242927521,-0.3007909059524536,0.855165958404541,-9.775433540344238
80154649000,0.0002915139775723219,-0.0004087778215762228,0.0003075382555834949,-0.29932093620300293,0.8520879745483398,-9.768620491027832
80161537000,0.0028585693798959255,0.0011692049447447062,-0.0028567782137542963,-0.32579487562179565,0.8978962898254395,-9.75836181640625
80168540000,-0.0013274939265102148,-0.003664854448288679,0.0028002227190881968,-0.27990248799324036,0.748769998550415,-9.740327835083008
80175410000,0.0016757495468482375,0.0016623508417978883,-0.002196529181674123,-0.3101111650466919,0.9505094289779663,-9.757678985595703
80182454000,-0.001606599660590291,0.0011701987823471427,0.00016407198563683778,-0.2749546766281128,0.8315834999084473,-9.776247024536133
80196233000,-0.0009006749605759978,0.00012866698671132326,0.00045882543781772256,-0.3029158115386963,0.8456971645355225,-9.774496078491211
80203246000,-0.0004885643720626831,9.12125688046217e-05,0.0003564481157809496,-0.3010461628437042,0.8533880710601807,-9.777921676635742
80210149000,-8.987687760964036e-05,-0.00012708832218777388,0.000317234022077173,-0.3013763129711151,0.8511666059494019,-9.776232719421387
80217146000,0.000213441759115085,-0.0003030207008123398,0.0002986369945574552,-0.3008923828601837,0.8513689041137695,-9.774561882019043
80224039000,0.0004055297758895904,-0.0004113619215786457,0.0002927716413978487,-0.3002069890499115,0.8517820835113525,-9.772072792053223
80237986000,-0.0011404557153582573,-0.003996753599494696,0.002878941595554352,-0.2813933789730072,0.7437483072280884,-9.738459587097168
80244916000,0.0017829203279688954,0.0015934299444779754,-0.0021847481839358807,-0.30913347005844116,0.9531951546669006,-9.75516128540039
80251960000,-0.001626445329748094,0.0012528013903647661,0.0001712535013211891,-0.2741939127445221,0.8324452638626099,-9.774946212768555
80258803000,-0.0013668560422956944,0.0009300661040470004,0.00027159464661963284,-0.300590455532074,0.8494687080383301,-9.777060508728027
80265738000,-0.0009850102942436934,0.000306480098515749,0.00042315281461924314,-0.30211710929870605,0.8464537858963013,-9.776110649108887
80279587000,-9.282039536628872e-05,-0.00013254155055619776,0.0003269373264629394,-0.3009949028491974,0.8539758920669556,-9.777414321899414
80286636000,0.00015020318096503615,-0.00017652861424721777,0.000267300580162555,-0.30056196451187134,0.8537055253982544,-9.776182174682617
80293531000,0.0003902639145962894,-0.000552383775357157,0.000347996799973771,-0.30107560753822327,0.8486316204071045,-9.771662712097168
80300518000,0.0029698126018047333,0.0009893141686916351,-0.002796435495838523,-0.32592567801475525,0.8973023891448975,-9.758651733398438
80314298000,-0.001255149021744728,-0.004053391516208649,0.0031641353853046894,-0.30282577872276306,0.7766921520233154,-9.74195384979248
80321325000,0.0018384897848591208,0.0017489390447735786,-0.0021718773059546947,-0.3108291029930115,0.9561634063720703,-9.756424903869629
80328219000,-0.001448694383725524,0.0013554829638451338,0.00015566093497909606,-0.27472662925720215,0.8322563171386719,-9.776269912719727
80335288000,-0.0011532721109688282,0.0007991214515641332,0.00035987779847346246,-0.30102625489234924,0.8458991646766663,-9.77570629119873
80342096000,-0.0007563222316093743,0.0004858699976466596,0.0003522054757922888,-0.30179673433303833,0.8505306243896484,-9.777446746826172
80356005000,2.0106956071686e-05,-0.00010844435746548697,0.0002957797551061958,-0.3018200099468231,0.8510388135910034,-9.776394844055176
80362960000,0.0002967573527712375,-0.00033371144672855735,0.00028065015794709325,-0.30115413665771484,0.8512781858444214,-9.774557113647461
80369998000,0.00043243117397651076,-0.00044095239718444645,0.0002795691543724388,-0.3002086281776428,0.8519102334976196,-9.7711820602417
80376809000,0.002998934593051672,0.0010886238887906075,-0.0028830503579229116,-0.3261825740337372,0.8977283239364624,-9.758846282958984
80383857000,-0.0005688401870429516,-0.00013041342026554048,-2.3378610421787016e-05,-0.2743769586086273,0.8217005729675293,-9.765687942504883
80397648000,-0.000532807782292366,-0.0005195862031541765,0.0003223429375793785,-0.299050509929657,0.8517774939537048,-9.768966674804688
80404637000,-0.0003623465890996158,-0.0006532182451337576,0.00041987394797615707,-0.299421489238739,0.8490296602249146,-9.767643928527832
80411562000,-0.0002691477129701525,-0.000285427609924227,0.00033811142202466726,-0.2977999150753021,0.8550132513046265,-9.768718719482422
80418626000,0.0025034972932189703,0.0012777101946994662,-0.002865163143724203,-0.3260757029056549,0.8972861766815186,-9.761669158935547
80425441000,-0.0015344275161623955,-0.0035231783986091614,0.0027627882082015276,-0.27967751026153564,0.7495737075805664,-9.745321273803711
80439397000,0.001957070780918002,0.002420746721327305,-0.0027100618463009596,-0.3262413740158081,0.9090067744255066,-9.768948554992676
80446268000,-0.001588652841746807,-0.0030144681222736835,0.0029766701627522707,-0.2833433747291565,0.7451815605163574,-9.751493453979492
80453275000,-0.0008220627205446362,0.000652797578368336,0.0009439325658604503,-0.28632068634033203,0.9047458171844482,-9.777456283569336
80460196000,0.002098050666972995,0.002809741999953985,-0.0027145647909492254,-0.3274741768836975,0.9080970287322998,-9.772918701171875
80474028000,-0.0007446407107636333,0.00045763555681332946,0.00030632512061856687,-0.30003321170806885,0.8497291207313538,-9.777853012084961
80480989000,-0.0003673143219202757,-3.6172481486573815e-05,0.000311232142848894,-0.30309024453163147,0.8495370149612427,-9.775423049926758
80488002000,-0.00014678604202345014,-0.0003785471781156957,0.00037700115353800356,-0.30131274461746216,0.8500546216964722,-9.774861335754395
80494898000,0.00015008807531557977,-0.0004758168070111424,0.0002929442562162876,-0.30125361680984497,0.8527518510818481,-9.773689270019531
80501881000,0.0002830949961207807,-0.0005288029788061976,0.0002848339208867401,-0.30015021562576294,0.852116584777832,-9.770408630371094
80515762000,0.002700034063309431,0.0013367175124585629,-0.0028939424082636833,-0.3249695301055908,0.8999465703964233,-9.758761405944824
80522747000,-0.0006784718716517091,-0.00029246191843412817,7.064222154440358e-05,-0.2760501801967621,0.8165144920349121,-9.765121459960938
80529631000,-0.0007263374282047153,-0.00046516122529283166,0.00031200278317555785,-0.2981511354446411,0.8482714295387268,-9.769447326660156
80536597000,-0.0005620901938527822,-0.0004575342172756791,0.00032362673664465547,-0.2992515563964844,0.8517540693283081,-9.770325660705566
80543479000,-0.0004218720714561641,-0.000489522994030267,0.0003928420483134687,-0.2988363206386566,0.85062575340271,-9.770023345947266
80557374000,0.0025805477052927017,0.0012135934084653854,-0.0028672204352915287,-0.3259633183479309,0.8970496654510498,-9.761190414428711
80564298000,-0.001498946687206626,-0.003540871199220419,0.002761394949629903,-0.2793677747249603,0.7497704029083252,-9.744571685791016
80571315000,-0.0009245242108590901,-6.349699106067419e-05,0.0010128184221684933,-0.28453561663627625,0.8989936113357544,-9.765987396240234
80585246000,-0.0016265611629933119,-0.002762255258858204,0.0028756228275597095,-0.28379592299461365,0.7458173036575317,-9.75205135345459
80592093000,-0.0008842604001984,0.0007357306894846261,0.0008999438723549247,-0.28669363260269165,0.9034465551376343,-9.780016899108887
80599087000,0.0020966343581676483,0.0028914303984493017,-0.0028296553064137697,-0.3283350169658661,0.9089835286140442,-9.77326774597168
80606000000,-0.0008094016229733825,0.000870844698511064,1.1800459105870686e-05,-0.27986854314804077,0.817549467086792,-9.780269622802734
80612928000,-0.0006644397508352995,0.00014562648721039295,0.00031494846916757524,-0.3012288212776184,0.8448433876037598,-9.775307655334473
80626857000,-0.00010982848471030593,-0.00035441218642517924,0.0003312849148642272,-0.30085501074790955,0.8543425798416138,-9.775264739990234
80633850000,0.0001243127917405218,-0.0004649966140277684,0.00030149484518915415,-0.3006688058376312,0.8521115779876709,-9.772993087768555
80640728000,0.00021485706383828074,-0.00027383220731280744,0.0002013338526012376,-0.2994503676891327,0.8553650379180908,-9.77103328704834
80647650000,0.00018539465963840485,-0.0005107930046506226,0.0003682784445118159,-0.299368292093277,0.848609209060669,-9.76608943939209
80654653000,0.002764713019132614,0.0011854107724502683,-0.00284729921258986,-0.32581451535224915,0.8989379405975342,-9.757163047790527
80668614000,-0.0008102971478365362,-0.0004947747802361846,0.0003844971943181008,-0.29841914772987366,0.8446359038352966,-9.769259452819824
80675463000,-0.0005801742663607001,-0.00044132606126368046,0.0003429247299209237,-0.29965347051620483,0.8524847030639648,-9.770451545715332
80682409000,-0.00035520194796845317,-0.0004080756916664541,0.00032833032310009,-0.2994050085544586,0.8519704341888428,-9.770577430725098
80689354000,-0.00016283956938423216,-0.00035294488770887256,0.00032532576005905867,-0.29899802803993225,0.8518375158309937,-9.769681930541992
80703327000,-0.00135759636759758,-0.003961730748414993,0.002893062075600028,-0.2816036343574524,0.7428780794143677,-9.741625785827637
80710152000,-0.0009827972389757633,0.0003774960059672594,0.0008575848769396544,-0.28185155987739563,0.9099072217941284,-9.76729679107666
80717183000,0.0019040079787373543,0.0027060979045927525,-0.0028161935042589903,-0.32623809576034546,0.9090906977653503,-9.770565032958984
80724062000,-0.0010244243312627077,0.0008456101641058922,2.8746024327119812e-05,-0.27850541472435,0.817624568939209,-9.777969360351562
80730983000,-0.0008648174698464572,0.0002222724724560976,0.0003388331097085029,-0.3002352714538574,0.8446796536445618,-9.773741722106934
80744918000,-0.00022684386931359768,-0.0004005471710115671,0.00043548893881961703,-0.3012393116950989,0.8484088182449341,-9.77297592163086
80751943000,2.6459834771230817e-05,-0.00030372184119187295,0.00034063184284605086,-0.3000149428844452,0.8544275164604187,-9.774109840393066
80758812000,0.0002346223045606166,-0.00035969665623269975,0.0003147477691527456,-0.2998851239681244,0.8522857427597046,-9.77204418182373
80765771000,0.000278003717539832,-0.0003127887612208724,0.0003206102119293064,-0.2990122139453888,0.8525183200836182,-9.767836570739746
80779599000,-0.001254879403859377,-0.0038844840601086617,0.0028962676879018545,-0.2811729311943054,0.7425012588500977,-9.739370346069336
80786639000,0.0016901150811463594,0.0018657201435416937,-0.002274082973599434,-0.30897027254104614,0.9561470150947571,-9.75827693939209
80793499000,-0.0023144748993217945,-0.002319101709872484,0.0029692535754293203,-0.27993229031562805,0.7587704658508301,-9.751832962036133
80800526000,-0.001275090966373682,0.00093223771546036,0.0009697474306449294,-0.28876474499702454,0.9012913703918457,-9.779823303222656
80807387000,0.001740333391353488,0.0029979515820741653,-0.0026846546679735184,-0.32806217670440674,0.9069931507110596,-9.773730278015137
80821343000,-0.0008154397364705801,0.00038265559123829007,0.00033338155481033027,-0.3019586205482483,0.8446561694145203,-9.777609825134277
80828219000,-0.0004421207122504711,-2.3114815121516585e-05,0.00033877641544677317,-0.3024716079235077,0.8504836559295654,-9.777793884277344
80835192000,-6.832607323303819e-05,-0.0005309740663506091,0.00041872955625876784,-0.3024207353591919,0.8480333089828491,-9.774813652038574
80842114000,0.00018214844749309123,-0.000481922528706491,0.00032019088394008577,-0.30065828561782837,0.8545844554901123,-9.775299072265625
80856025000,0.0002862752880901098,-0.0004077982739545405,0.00031632703030481935,-0.29889392852783203,0.8529130220413208,-9.765884399414062
80862939000,0.002797068329527974,0.0012345556169748306,-0.0028491532430052757,-0.3255997896194458,0.8983238935470581,-9.756938934326172
80870016000,-0.0007313902606256306,1.1834199540317059e-05,8.159129720297642e-06,-0.27453574538230896,0.8216338157653809,-9.766054153442383
80876884000,-0.0007293940288946033,-0.0004161059041507542,0.0003124283393844962,-0.29913121461868286,0.8459051847457886,-9.76990795135498
80883913000,-0.0005625883350148797,-0.0004582844558171928,0.00033834108035080135,-0.29953739047050476,0.8514578342437744,-9.770648956298828
80897669000,-0.0002372708695475012,-0.0002861921093426645,0.00035363566712476313,-0.2979997992515564,0.8550044298171997,-9.769098281860352
80904655000,-8.573480590712279e-05,-0.00018340925453230739,0.00033379459637217224,-0.2989334762096405,0.8525744676589966,-9.769062995910645
80911586000,0.002630009315907955,0.0015471054939553142,-0.002952230628579855,-0.3259151577949524,0.9002814292907715,-9.76274585723877
80918596000,-0.0012984885834157467,-0.0038812425918877125,0.0028931237757205963,-0.28160959482192993,0.741844892501831,-9.741947174072266
80925513000,0.0016853876877576113,0.0018932720413431525,-0.0022774760145694017,-0.3089092969894409,0.9558058381080627,-9.760457038879395
80939497000,-0.00123886251822114,0.0005968010518699884,0.00037710010656155646,-0.3004130423069,0.8457008004188538,-9.774290084838867
80946323000,-0.0008556892862543464,0.0003443449968472123,0.0003747381269931793,-0.3012444078922272,0.8506429195404053,-9.776243209838867
80953372000,-0.0005111594218760729,3.3906952012330294e-05,0.000422693497966975,-0.30098089575767517,0.8498174548149109,-9.776375770568848
80960236000,-8.161730511346832e-05,-0.00010891447163885459,0.0003285278507973999,-0.3014514148235321,0.8521836996078491,-9.775845527648926
80967201000,0.00021262263180688024,-0.0002768668928183615,0.00030676499591208994,-0.300764799118042,0.8514974117279053,-9.774234771728516
80981092000,0.003063906915485859,0.0008593567181378603,-0.0027826004661619663,-0.3276612162590027,0.8925707340240479,-9.75815486907959
80988119000,-0.0012299178633838892,-0.0036873496137559414,0.002802989911288023,-0.2788170874118805,0.7514487504959106,-9.739259719848633
81002036000,0.0018105707131326199,0.0026527612935751677,-0.002725120633840561,-0.3261358141899109,0.9090847373008728,-9.768803596496582
81008820000,-0.0010674106888473034,0.0008436141069978476,3.6056062526768073e-05,-0.27916866540908813,0.8191916346549988,-9.778873443603516
81015784000,-0.0008942147251218557,0.00018548447405919433,0.00033419160172343254,-0.3006576597690582,0.8447926044464111,-9.774286270141602
81022718000,-0.0006452221423387527,-0.00015087466454133391,0.00042323800153099,-0.3007860779762268,0.8496057987213135,-9.775137901306152
81029620000,-0.000254143204074353,-0.00026331693516112864,0.0003325061406940222,-0.301447331905365,0.8526526689529419,-9.77500057220459
81043519000,0.00021994348207954317,-0.00025627127615734935,0.0002015420759562403,-0.29961082339286804,0.8549830913543701,-9.773123741149902
81050572000,0.0029243375174701214,0.00100345304235816,-0.0028893533162772655,-0.3269856572151184,0.894416868686676,-9.759925842285156
81057435000,-0.0012667516712099314,-0.0038173480425029993,0.0027856079395860434,-0.2796008884906769,0.7483291625976562,-9.739968299865723
81064350000,0.0017335887532681227,0.0015401729615405202,-0.0021971457172185183,-0.30970507860183716,0.9504737257957458,-9.756280899047852
81071364000,-0.0016075652092695236,0.0011377843329682946,0.00017258399748243392,-0.27427345514297485,0.8318033218383789,-9.774785995483398
81085265000,-0.0009142912458628416,0.00036873173667117953,0.00037872762186452746,-0.3014478087425232,0.8504340648651123,-9.776604652404785
81092145000,-0.0004796086286660284,0.00011694605927914381,0.0003486553905531764,-0.30157679319381714,0.8509314656257629,-9.777061462402344
81099123000,-7.33761116862297e-05,-0.0003194447490386665,0.0004244313749950379,-0.3017067611217499,0.8479440212249756,-9.774554252624512
81106054000,0.0002103754668496549,-0.00027024256996810436,0.0003279475204180926,-0.30013564229011536,0.8539917469024658,-9.77528190612793
81120032000,0.003002763958647847,0.0011800932697951794,-0.0028644842095673084,-0.3261444568634033,0.8977916240692139,-9.759689331054688
81126862000,-0.0011935795191675425,-0.003679978661239147,0.002795098116621375,-0.28007617592811584,0.7487407922744751,-9.740296363830566
81133852000,-0.0008756229653954506,0.00019339105347171426,0.0009432071819901466,-0.28307589888572693,0.9048177003860474,-9.764236450195312
81140806000,0.0018729136791080236,0.0025606881827116013,-0.002686594845727086,-0.325741708278656,0.9091336727142334,-9.767398834228516
81147709000,-0.0010757057461887598,0.0008917278610169888,5.0534799811430275e-05,-0.27850934863090515,0.820783257484436,-9.77973461151123
81161578000,-0.000591048679780215,-3.930076491087675e-05,0.000344662694260478,-0.30147120356559753,0.8508590459823608,-9.775599479675293
81168621000,-0.00024411515914835036,-0.000456159352324903,0.0004259230918250978,-0.30160433053970337,0.8482943773269653,-9.773528099060059
81175478000,1.97816698346287e-05,-0.00037283479468896985,0.000328203197568655,-0.30025994777679443,0.854430079460144,-9.77458667755127
81182486000,0.0002246923977509141,-0.00042901572305709124,0.0003051196981687099,-0.3000403046607971,0.8521318435668945,-9.771624565124512
81196293000,-0.00127897085621953,-0.003740358166396618,0.002791711362078786,-0.2799909710884094,0.7484362125396729,-9.74072265625
81203383000,-0.000958319054916501,0.0001890445128083229,0.0009434869862161577,-0.28274115920066833,0.9049003720283508,-9.765178680419922
81210213000,0.0018649438861757517,0.0027151722460985184,-0.0027981363236904144,-0.3258157968521118,0.9118770360946655,-9.769440650939941
81217202000,-0.001049068639986217,0.0008236531866714358,2.5095941964536905e-05,-0.2790974974632263,0.8178247213363647,-9.778632164001465
81224099000,-0.0008822121890261769,0.00017328612739220262,0.0003314419009257108,-0.3006115257740021,0.8447021245956421,-9.774273872375488
81238021000,-0.0002283098583575338,-0.00047589809400960803,0.0004265204188413918,-0.3014274537563324,0.8483866453170776,-9.773280143737793
81244905000,3.3975462429225445e-05,-0.00037742804852314293,0.0003290861495770514,-0.3002036213874817,0.8544310927391052,-9.774273872375488
81251905000,0.0002283756184624508,-0.0004172580665908754,0.00030879260157234967,-0.2999384105205536,0.8521478176116943,-9.77122688293457
81258823000,0.00025385688059031963,-0.0003359998809173703,0.00031704161665402353,-0.2989248037338257,0.8526133298873901,-9.767311096191406
81272765000,-0.0013329056091606617,-0.003598229493945837,0.0028055591974407434,-0.28008806705474854,0.7486240863800049,-9.740904808044434
81279636000,0.001707154675386846,0.0018740403465926647,-0.0023018561769276857,-0.31025153398513794,0.953424334526062,-9.759532928466797
81286655000,-0.001532090362161398,0.0009120492031797767,0.00024505602777935565,-0.2760898768901825,0.825420081615448,-9.77519702911377
81293542000,-0.001301107695326209,0.0006097705336287618,0.00039334711618721485,-0.29995110630989075,0.8485631942749023,-9.77562141418457
81300545000,-0.0008950395858846605,0.00035075173946097493,0.0003731314791366458,-0.30157846212387085,0.8508310914039612,-9.776647567749023
81314364000,-9.278240031562746e-05,-0.00012973601405974478,0.00032261930755339563,-0.30167829990386963,0.8520232439041138,-9.77616024017334
81321441000,0.0001336594286840409,-0.00017268731608055532,0.0002744983648881316,-0.30019208788871765,0.8533402681350708,-9.775903701782227
81328256000,0.00044776973663829267,-0.0006727860309183598,0.00038119935197755694,-0.30164968967437744,0.8467856645584106,-9.770180702209473
81335223000,0.002973431721329689,0.001332071260549128,-0.002951141679659486,-0.32482045888900757,0.90366530418396,-9.760674476623535
81342150000,-0.001143548171967268,-0.0039743343368172646,0.0028754447121173143,-0.2811904847621918,0.7427695393562317,-9.738612174987793
81356087000,-0.001582809374667704,0.0011766981333494186,0.0001504307147115469,-0.27511268854141235,0.8294907808303833,-9.775359153747559
81362981000,-0.0013373596593737602,0.0008369599236175418,0.000269947515334934,-0.3004840016365051,0.849052906036377,-9.776755332946777
81370009000,-0.0009685620316304266,0.00023034715559333563,0.0004251327773090452,-0.3019239604473114,0.8464476466178894,-9.775896072387695
81376864000,-0.00045861973194405437,-0.0001917400222737342,0.00044399150647222996,-0.3024202287197113,0.8484278917312622,-9.775627136230469
81390776000,0.00022557060583494604,-0.0003296518698334694,0.00029979977989569306,-0.3008454740047455,0.8517153859138489,-9.77458381652832
81397769000,0.00031881348695605993,-0.0002812180027831346,0.0002719773619901389,-0.2993336021900177,0.8536996841430664,-9.772517204284668
81404717000,0.0030474974773824215,0.0008633725810796022,-0.002784525277093053,-0.3275912404060364,0.8926593065261841,-9.757832527160645
81411591000,-0.0013171990867704153,-0.003546960186213255,0.0027754688635468483,-0.27819061279296875,0.753345251083374,-9.740669250488281
81425489000,-0.001618612790480256,0.0014447416178882122,8.364682435058057e-05,-0.2731962502002716,0.8379430174827576,-9.776451110839844
81432404000,-0.001305550104007125,0.0006809259066358209,0.00035487691638991237,-0.3016744554042816,0.843701183795929,-9.774809837341309
81439438000,-0.0008921340340748429,0.0003494138363748789,0.0003637040499597788,-0.3018394112586975,0.8501498699188232,-9.777121543884277
81446303000,-0.0004392520640976727,-0.00013472768478095531,0.00043503555934876204,-0.30214905738830566,0.847832202911377,-9.775967597961426
81453389000,-6.786813901271671e-05,-0.00015237194020301104,0.0003284573322162032,-0.30084630846977234,0.8535559177398682,-9.777195930480957
81467207000,0.00038968416629359126,-0.0005541511345654726,0.00035145317087881267,-0.30099034309387207,0.8487386107444763,-9.771414756774902
81474103000,0.0029652316588908434,0.0009880138095468283,-0.002792373765259981,-0.32591474056243896,0.8973064422607422,-9.758463859558105
81481115000,-0.0011910747271031141,-0.00392428832128644,0.002890410367399454,-0.2803537845611572,0.7468224763870239,-9.737861633300781
81488071000,0.0016991635784506798,0.0019368317443877459,-0.002280217595398426,-0.3085780441761017,0.9571488499641418,-9.757965087890625
81501987000,-0.0012638774933293462,0.0006298490334302187,0.00036909556365571916,-0.3012160360813141,0.8468820452690125,-9.775456428527832
81508860000,-0.0008489983156323433,0.00033528468338772655,0.00035732920514419675,-0.3018065094947815,0.8505142331123352,-9.777111053466797
81515916000,-0.0004771544481627643,-2.150324871763587e-05,0.000405169150326401,-0.3014960289001465,0.8494656682014465,-9.776955604553223
81522758000,-3.80055425921455e-05,-0.00017940333054866642,0.000310837640427053,-0.30171167850494385,0.8520932197570801,-9.776376724243164
81529635000,0.0002692603738978505,-0.00036438211100175977,0.00028851887327618897,-0.30107948184013367,0.8513072729110718,-9.774436950683594
81543543000,0.003052463522180915,0.0008494534995406866,-0.00279248901642859,-0.3275830149650574,0.8927465677261353,-9.7576265335083
81550527000,-0.0006436040275730193,3.589328844100237e-05,-2.0316170775913633e-05,-0.2726280689239502,0.8262532353401184,-9.766481399536133
81557438000,-0.0005645545315928757,-0.0005363630480132997,0.000284265901427716,-0.2999064028263092,0.8443388342857361,-9.769012451171875
81564396000,-0.00047603913117200136,-0.0005200436571612954,0.0003252386813983321,-0.29900437593460083,0.8516473174095154,-9.76884937286377
81578250000,-0.0008735805749893188,-0.0039023985154926777,0.003182720160111785,-0.30298805236816406,0.7828050255775452,-9.742318153381348
81585288000,0.002140163676813245,0.001954074949026108,-0.0020926599390804768,-0.30958595871925354,0.9558520317077637,-9.756763458251953
81592168000,-0.0010439233155921102,0.0015592074487358332,0.00015645934036001563,-0.2753153443336487,0.8331012725830078,-9.775614738464355
81599089000,-0.0008087258320301771,0.0009853921364992857,0.00035748269874602556,-0.3009214699268341,0.8463362455368042,-9.775463104248047
81606076000,-0.0004848956596106291,0.0006229422870092094,0.000353113777237013,-0.3018595278263092,0.850778341293335,-9.776904106140137
81620005000,-0.0005519532132893801,-0.00028804372414015234,6.0292375565040857e-05,-0.2788209319114685,0.816114068031311,-9.778310775756836
81626959000,-0.0004936840268783271,-0.000647832581307739,0.00028853846015408635,-0.2993100583553314,0.8477311730384827,-9.773541450500488
81633916000,-0.00034844735637307167,-0.000828404794447124,0.0003743366105481982,-0.29972463846206665,0.8501907587051392,-9.771994590759277
81640850000,-0.00012364541180431843,-0.000714068824891001,0.0003033455868717283,-0.2995072901248932,0.8531299829483032,-9.769972801208496
81654793000,-3.548222593963146e-05,-0.00014878946240060031,0.00021223872317932546,-0.29760032892227173,0.8558851480484009,-9.767536163330078
81661710000,0.0026651788502931595,0.0012072476092725992,-0.0028867502696812153,-0.3263092339038849,0.894587516784668,-9.759053230285645
81668621000,-0.0014121888671070337,-0.0036719157360494137,0.00279066851362586,-0.2798095643520355,0.747771143913269,-9.741591453552246
81675488000,-0.0009752071346156299,0.00018104433547705412,0.000931817980017513,-0.2830793261528015,0.9040585160255432,-9.76607608795166
81682452000,0.0018736461643129587,0.0025259635876864195,-0.0027001325506716967,-0.32571354508399963,0.9084409475326538,-9.768763542175293
81696370000,-0.0008197163115255535,0.0006033546524122357,0.0009279485093429685,-0.28759458661079407,0.9017555713653564,-9.778919219970703
81703369000,0.002098524710163474,0.0027187562081962824,-0.00271178362891078,-0.32756561040878296,0.9076350927352905,-9.77292251586914
81710202000,-0.0008209881489165127,0.0009388825274072587,3.217145422240719e-05,-0.2792644202709198,0.8205093145370483,-9.781502723693848
81717238000,-0.0006560523761436343,0.0002067949972115457,0.00031759653938934207,-0.3014168441295624,0.8450254201889038,-9.775601387023926
81724112000,-0.00035564976860769093,-0.0003323037235531956,0.0004305265611037612,-0.3021736443042755,0.8477364778518677,-9.774296760559082
81738078000,0.00014814455062150955,-0.0004638011159840971,0.0002989133645314723,-0.30081331729888916,0.8520272374153137,-9.773261070251465
81744962000,0.00017327874957118183,-0.00035658618435263634,0.0002740318013820797,-0.2990345060825348,0.8541375398635864,-9.771079063415527
81751986000,0.0028185455594211817,0.0009413622319698334,-0.0028089890256524086,-0.32686713337898254,0.8946317434310913,-9.758787155151367
81758814000,-0.00063157151453197,-0.00039935746463015676,9.467424388276413e-05,-0.2749253511428833,0.8192492723464966,-9.764204025268555
81765774000,-0.001333895605057478,-0.004127671010792255,0.003167147748172283,-0.30287089943885803,0.7764859795570374,-9.74242877960205
81779738000,-0.0014690649695694447,0.0013121628435328603,0.00015826949675101787,-0.2746715247631073,0.8321846127510071,-9.776411056518555
81786697000,-0.001250630710273981,0.0009173890575766563,0.0003407320473343134,-0.300127774477005,0.8477499485015869,-9.776670455932617
81793536000,-0.0007417218293994665,0.00025417376309633255,0.00044991803588345647,-0.3030272126197815,0.8456449508666992,-9.774776458740234
81800589000,-0.00034607292036525905,0.00018842981080524623,0.000347804743796587,-0.30126819014549255,0.8533691763877869,-9.778066635131836
81814363000,0.00030374558991752565,-0.0002734264708124101,0.0002920620026998222,-0.3012397587299347,0.8512669205665588,-9.77442741394043
81821371000,0.00045031122863292694,-0.0003851256624329835,0.0002873240446206182,-0.30025359988212585,0.8520424365997314,-9.771800994873047
81828272000,0.0030326973646879196,0.0011200234293937683,-0.002878837985917926,-0.3264102339744568,0.8976683616638184,-9.759262084960938
81835356000,-0.0005330645944923162,-0.00011712743435055017,-1.738142418616917e-05,-0.2745100259780884,0.8216729164123535,-9.765835762023926
81842166000,-0.0005960523849353194,-0.000528327189385891,0.00029471906600520015,-0.2987578511238098,0.8458946943283081,-9.768601417541504
81856074000,-0.0003563565551303327,-0.0006456674309447408,0.0004257518157828599,-0.29944291710853577,0.8491439819335938,-9.767537117004395
81862993000,-0.00027019859408028424,-0.00027937383856624365,0.000343826599419117,-0.29784154891967773,0.8550946116447449,-9.768651008605957
81869989000,-0.00011916560470126569,-0.00017991878848988563,0.0003230433212593198,-0.29887235164642334,0.8525339365005493,-9.769129753112793
81876879000,0.002608872251585126,0.0015376548981294036,-0.0029641129076480865,-0.32591935992240906,0.9001457691192627,-9.763043403625488
81890812000,0.0017420704243704677,0.0016167350113391876,-0.002196553163230419,-0.3095649778842926,0.9520972967147827,-9.758588790893555
81897786000,-0.00218859501183033,-0.0024358797818422318,0.002985733561217785,-0.27984681725502014,0.7592594027519226,-9.750848770141602
81904722000,-0.0013353759422898293,0.001189169124700129,0.0009484582114964724,-0.2865169942378998,0.9053788185119629,-9.781469345092773
81911606000,0.0017906194552779198,0.003084456315264106,-0.0027139068115502596,-0.32924923300743103,0.9053246378898621,-9.773117065429688
81918649000,-0.0010012966813519597,0.0010142013197764754,0.00014237742288969457,-0.28010377287864685,0.8166605830192566,-9.781700134277344
81932431000,-0.0003814385272562504,-0.00014326535165309906,0.00043559091864153743,-0.3030984699726105,0.8489193916320801,-9.776620864868164
81939413000,-4.875510057900101e-05,-0.0002119645942002535,0.0003200803475920111,-0.30157363414764404,0.8541483283042908,-9.777480125427246
81946364000,0.00023381436767522246,-0.00041810504626482725,0.00028549489798024297,-0.3013738989830017,0.8517370223999023,-9.774699211120605
81953341000,0.0003023153403773904,-0.0003896151902154088,0.0002563947346061468,-0.299644410610199,0.8538613319396973,-9.772734642028809
81967237000,0.002793764229863882,0.0010629008756950498,-0.0027868621982634068,-0.32545575499534607,0.8978180289268494,-9.756183624267578
81974111000,-0.0007723874296061695,-0.00010615249630063772,7.186039147200063e-05,-0.27414095401763916,0.8217214941978455,-9.765085220336914
81981080000,-0.000699012482073158,-0.000633652089163661,0.00040228970465250313,-0.2996189594268799,0.8439364433288574,-9.767963409423828
81988087000,-0.0005982730071991682,-0.0003691869496833533,0.00034429726656526327,-0.2986699044704437,0.854605495929718,-9.769954681396484
81994931000,-0.0003741604450624436,-0.00032677300623618066,0.0003175903984811157,-0.2994062602519989,0.8521623611450195,-9.770822525024414
82008861000,-7.271852518897504e-05,-0.00015567769878543913,0.00033116425038315356,-0.29795601963996887,0.8549178242683411,-9.769011497497559
82015771000,0.0026638065464794636,0.001386913936585188,-0.002871885895729065,-0.32620343565940857,0.8974155187606812,-9.761548042297363
82022764000,-0.0013393403496593237,-0.003568703541532159,0.002783798146992922,-0.2805256247520447,0.7478659152984619,-9.743663787841797
82029655000,-0.0008899936219677329,0.00041823944775387645,0.0008141141152009368,-0.2833929657936096,0.9070479869842529,-9.768628120422363
82043561000,-0.000986191676929593,0.0006260791560634971,0.00012464191240724176,-0.278188556432724,0.8173586130142212,-9.777390480041504
82050580000,-0.0008393043535761535,3.3389194868505e-05,0.0004386885557323694,-0.30004966259002686,0.844499945640564,-9.772881507873535
82057444000,-0.0005704749491997063,5.4407864809036255e-05,0.00035168632166460156,-0.3003467619419098,0.8540774583816528,-9.775747299194336
82064400000,-0.0002538821136113256,-0.00011506535520311445,0.0003131592820864171,-0.3010987639427185,0.8518533706665039,-9.77457332611084
82071395000,1.4383360394276679e-05,-0.00026384758530184627,0.0002948264009319246,-0.30051732063293457,0.8514482975006104,-9.773514747619629
82085336000,0.0003234157629776746,-0.0004261777794454247,0.00026555743534117937,-0.30012449622154236,0.8493865728378296,-9.769063949584961
82092173000,0.0028766789473593235,0.0011313542490825057,-0.002881590975448489,-0.32559382915496826,0.8974841237068176,-9.758240699768066
82099139000,-0.0013194861821830273,-0.0037047406658530235,0.0027778143994510174,-0.2797532379627228,0.7485096454620361,-9.739957809448242
82106087000,-0.001011035987176001,0.000215205829590559,0.0009289238369092345,-0.28262409567832947,0.9048562049865723,-9.765095710754395
82120003000,-0.0011140665737912059,0.0008527006721124053,1.7758931790012866e-05,-0.27908772230148315,0.8190079927444458,-9.778573989868164
82126879000,-0.0009353591594845057,0.0002082860446535051,0.0003153075813315809,-0.3004942536354065,0.844650149345398,-9.774169921875
82133919000,-0.0006165506783872843,-5.1072798669338226e-05,0.00032871830626390874,-0.3011016249656677,0.8506776094436646,-9.775362968444824
82140833000,-0.00026490536401979625,-0.00044359665480442345,0.00040970704867504537,-0.30129095911979675,0.8481975793838501,-9.773364067077637
82154732000,0.0002262253110529855,-0.00040408934000879526,0.000286858034087345,-0.29987257719039917,0.8520601391792297,-9.772255897521973
82161611000,0.002817112486809492,0.0012413194635882974,-0.002910020062699914,-0.325430691242218,0.899122953414917,-9.761641502380371
82168656000,-0.0011972342617809772,-0.004005572758615017,0.0028618730138987303,-0.28131768107414246,0.7434304356575012,-9.739486694335938
82175495000,-0.0010009320685639977,0.0002952043432742357,0.0009149370016530156,-0.2811322510242462,0.909095287322998,-9.765097618103027
82182477000,0.0018170620314776897,0.0026391802821308374,-0.0027464067097753286,-0.3260267972946167,0.9091618657112122,-9.768939971923828
82196348000,-0.0008796443580649793,0.00020576512906700373,0.0003158228355459869,-0.30047282576560974,0.8446364998817444,-9.774096488952637
82203368000,-0.0006316903745755553,-0.0001202239072881639,0.00040535617154091597,-0.30064520239830017,0.8494915962219238,-9.775002479553223
82210223000,-0.00024358688096981496,-0.0002304631780134514,0.0003168325638398528,-0.30134209990501404,0.8524998426437378,-9.77490520477295
82217234000,2.5638160877861083e-05,-0.00015337378135882318,0.00019241843256168067,-0.3001256585121155,0.8547276258468628,-9.77525520324707
82224160000,0.0002672135306056589,-0.00049208925338462,0.0002689580724108964,-0.30078673362731934,0.8487114906311035,-9.7711181640625
82238062000,-0.0012741624377667904,-0.003785140113905072,0.0027737654745578766,-0.27971524000167847,0.7483770847320557,-9.740221977233887
82244956000,-0.0009572422131896019,0.00014993490185588598,0.0009313820628449321,-0.2825242578983307,0.9047486782073975,-9.764430046081543
82252040000,0.001864495687186718,0.0024961167946457863,-0.0027017772663384676,-0.3257841467857361,0.9085657596588135,-9.767106056213379
82258875000,-0.0010827340884134173,0.0008746158564463258,3.846560139209032e-05,-0.2780574560165405,0.820701003074646,-9.77929973602295
82265825000,-0.0009113132255151868,0.0002607717760838568,0.0003255764895584434,-0.3004014194011688,0.8450642824172974,-9.774273872375488
82279711000,-0.00025951938005164266,-0.00019728127517737448,0.0003239894867874682,-0.30147868394851685,0.85246342420578,-9.775054931640625
82286679000,1.6525642422493547e-05,-0.00013337488053366542,0.0001999326777877286,-0.3004903197288513,0.8549049496650696,-9.77544116973877
82293563000,0.00025561530492268503,-0.00046482717152684927,0.0002715198206715286,-0.3006875216960907,0.8489782810211182,-9.771513938903809
82300555000,0.000289523130049929,-0.00043185826507396996,0.0002978089323733002,-0.29891666769981384,0.8520823121070862,-9.76785659790039
82314393000,-0.001341621158644557,-0.0036467663012444973,0.002792821265757084,-0.2796720266342163,0.7487035393714905,-9.740118980407715
82321485000,0.001669428776949644,0.0016804557526484132,-0.002203637734055519,-0.30996349453926086,0.9503688812255859,-9.757652282714844
82328289000,-0.0022429830860346556,-0.002444548299536109,0.0029894739855080843,-0.2802051305770874,0.7589278221130371,-9.750224113464355
82335329000,-0.001324290526099503,0.0010427860543131828,0.000974980357568711,-0.28734979033470154,0.9034563302993774,-9.779829025268555
82349147000,-0.0010709831258282065,0.0012363373534753919,4.303097375668585e-05,-0.27984800934791565,0.8201112747192383,-9.7837495803833
82356105000,-0.0007972203311510384,0.00041894958121702075,0.0003195720782969147,-0.302146315574646,0.8445098400115967,-9.778099060058594
82363014000,-0.0004165289574302733,-8.54680547490716e-06,0.0003228207060601562,-0.30266398191452026,0.850378155708313,-9.778231620788574
82370057000,-4.090915899723768e-05,-0.0005347018595784903,0.00040259776869788766,-0.3025627136230469,0.8479330539703369,-9.775181770324707
82376905000,0.00021658701007254422,-0.0005116401007398963,0.0003049583174288273,-0.30062228441238403,0.8541381359100342,-9.7754487991333
82390859000,0.0002942509890999645,-0.00042324181413277984,0.0003018534916918725,-0.2989116311073303,0.8528878688812256,-9.765751838684082
82397731000,0.00017653900431469083,-0.0002388389693805948,0.000317884812830016,-0.2982981503009796,0.8533530235290527,-9.764348030090332
82404766000,0.002619953826069832,0.001507410197518766,-0.002878778148442507,-0.32507622241973877,0.9000850319862366,-9.758888244628906
82411614000,-0.0007231050985865295,-0.00017672014655545354,8.091080962913111e-05,-0.276473730802536,0.8164900541305542,-9.766317367553711
82418729000,-0.0008146028267219663,-0.0002750174608081579,0.00029034371254965663,-0.29788440465927124,0.8501207232475281,-9.772161483764648
82425526000,-0.0005457354709506035,-0.0004786694189533591,0.00031377471168525517,-0.3006603419780731,0.8499225378036499,-9.770247459411621
82439467000,-0.00015627010725438595,-0.0004115720512345433,0.0003213306190446019,-0.29925736784935,0.853015661239624,-9.7694730758667
82446385000,0.002587438328191638,0.0011705150827765465,-0.0028664059937000275,-0.3258689343929291,0.8972511887550354,-9.76087474822998
82453392000,-0.0014208417851477861,-0.003710835473611951,0.002788427285850048,-0.2801297903060913,0.7477304935455322,-9.742668151855469
82460255000,-0.0010329792276024818,0.00028109888080507517,0.0009030625806190073,-0.2824147045612335,0.9058860540390015,-9.767742156982422
82474155000,-0.000999164185486734,0.0007960633374750614,1.8249076674692333e-05,-0.27853089570999146,0.8176681995391846,-9.778172492980957
82481089000,-0.0008369763963855803,0.00018121558241546154,0.0003270028973929584,-0.3002091646194458,0.8446789383888245,-9.773849487304688
82488094000,-0.0005335339228622615,-5.361513467505574e-05,0.00034251692704856396,-0.3009644150733948,0.8508403301239014,-9.774946212768555
82494973000,-0.00019403063924983144,-0.00044168817112222314,0.000426258280640468,-0.3013126254081726,0.8482139110565186,-9.772782325744629
82508897000,0.00024107393983285874,-0.0003660967922769487,0.00030809230520389974,-0.2997643053531647,0.8523213863372803,-9.771553993225098
82515785000,0.0028958083130419254,0.0011537220561876893,-0.0028661841060966253,-0.3261761963367462,0.8974379301071167,-9.760035514831543
82522814000,-0.0012574491556733847,-0.003703841706737876,0.0027921530418097973,-0.27996474504470825,0.7484420537948608,-9.740839958190918
82529696000,-0.0009419933194294572,0.00021369406022131443,0.0009438834968023002,-0.2827090919017792,0.9048749208450317,-9.765254020690918
82536732000,0.0018140869215130806,0.0026567799504846334,-0.002720703138038516,-0.3253326416015625,0.910584032535553,-9.76921558380127
82550643000,-0.0008857744978740811,0.0002039419487118721,0.00033268859260715544,-0.30054035782814026,0.8448479175567627,-9.774165153503418
82557480000,-0.0006394711672328413,-0.00012914155377075076,0.00042264536023139954,-0.3007495701313019,0.8495727181434631,-9.775030136108398
82564406000,-0.0002515744126867503,-0.00023903603141661733,0.0003322503180243075,-0.30141377449035645,0.8526503443717957,-9.774974822998047
82571424000,-4.2502157157287e-05,-0.00023715902352705598,0.00028362401644699275,-0.3000400960445404,0.8537532687187195,-9.7750244140625
82585382000,0.0029069252777844667,0.0010411778930574656,-0.002863542176783085,-0.3262028694152832,0.898077130317688,-9.760047912597656
82592242000,-0.0012518735602498055,-0.003752144519239664,0.002775009488686919,-0.2797277867794037,0.748870849609375,-9.740377426147461
82599165000,-0.0009240811923518777,0.00015337765216827393,0.0009383636061102152,-0.28274786472320557,0.9044936895370483,-9.76436710357666
82606163000,0.001882348908111453,0.0025076677557080984,-0.002691240282729268,-0.3257434070110321,0.9086703062057495,-9.767074584960938
82613068000,-0.0010511900763958693,0.0006783006247133017,0.00015122396871447563,-0.2783893346786499,0.8176024556159973,-9.777729988098145
82626947000,-0.0005698124878108501,-0.0001433748984709382,0.0004517946217674762,-0.30149105191230774,0.8481663465499878,-9.773856163024902
82633945000,-0.00026381469797343016,-0.00010481293429620564,0.0003453065000940114,-0.3005223274230957,0.854341983795166,-9.775839805603027
82640902000,1.3442060662782751e-05,-4.982387326890603e-05,0.00021099575678817928,-0.30070075392723083,0.8551401495933533,-9.775482177734375
82647807000,0.00025048444513231516,-0.00040554447332397103,0.0002823798276949674,-0.3009084165096283,0.8489673137664795,-9.771574020385742
82661724000,0.0028604650869965553,0.0011745997471734881,-0.0028592224698513746,-0.3256666362285614,0.8979241847991943,-9.758325576782227
82668716000,-0.0013263842556625605,-0.0036618970334529877,0.0027973337564617395,-0.27982234954833984,0.748744010925293,-9.740321159362793
82675590000,0.001691489014774561,0.001646572258323431,-0.002201007679104805,-0.3101198971271515,0.9503971934318542,-9.757495880126953
82682502000,-0.0016163095133379102,0.0011804787209257483,0.00016246810264419764,-0.27466583251953125,0.8317192792892456,-9.776224136352539
82696380000,-0.00101036939304322,0.000504318973980844,0.0003414305974729359,-0.30074837803840637,0.852413535118103,-9.778289794921875
82703424000,-0.0004835496947634965,6.985018262639642e-05,0.00032315682619810104,-0.30270975828170776,0.849145233631134,-9.7765474319458
82710295000,-9.189645061269403e-05,-0.0001846565428422764,0.0003084615455009043,-0.3014257550239563,0.8507675528526306,-9.776284217834473
82717317000,0.00022127959528006613,-0.0003762050182558596,0.0002951515489257872,-0.3007805645465851,0.8511197566986084,-9.774555206298828
82731116000,0.003006627317517996,0.0010747076012194157,-0.0028694996144622564,-0.3259100317955017,0.8976410031318665,-9.758935928344727
82738165000,-0.0012206940446048975,-0.00372105510905385,0.0027865534648299217,-0.27960965037345886,0.7488446235656738,-9.739580154418945
82745005000,0.0017704146448522806,0.0016064801020547748,-0.0022024440113455057,-0.3099271357059479,0.9505190253257751,-9.75616455078125
82752019000,-0.0016039403853937984,0.0012036263942718506,0.00016671683988533914,-0.27428117394447327,0.8320444822311401,-9.775166511535645
82758960000,-0.0014018681831657887,0.0007973489118739963,0.00034832244273275137,-0.30009421706199646,0.8479292392730713,-9.77663516998291
82772928000,-0.00046901151654310524,8.478842210024595e-05,0.0003532084811013192,-0.3010675609111786,0.8533551692962646,-9.778122901916504
82779767000,-7.031727000139654e-05,-0.00013981317169964314,0.0003131497942376882,-0.30135077238082886,0.8511844277381897,-9.776408195495605
82786748000,0.00023451978631783277,-0.0003233313327655196,0.0002943512226920575,-0.3008823096752167,0.8513346910476685,-9.774641990661621
82793632000,0.00040905605419538915,-0.0004222203278914094,0.0002919711696449667,-0.3000688850879669,0.8517565131187439,-9.771476745605469
82807571000,-0.001147411298006773,-0.003991411067545414,0.0028762868605554104,-0.2814413011074066,0.7436478137969971,-9.73851490020752
82814446000,-0.0009121333714574575,0.00017777609173208475,0.0009550487156957388,-0.28194260597229004,0.907443642616272,-9.763158798217773
82821475000,0.001823448808863759,0.0027985451743006706,-0.0027914245147258043,-0.3253023624420166,0.912673830986023,-9.768819808959961
82828387000,-0.0010873792925849557,0.0008933395147323608,2.4782500986475497e-05,-0.2791827917098999,0.8179509043693542,-9.779216766357422
82842230000,-0.0005819894140586257,-6.911339005455375e-05,0.0003360808768775314,-0.30147072672843933,0.8507545590400696,-9.775875091552734
82849157000,-0.00022444163914769888,-0.0004876977181993425,0.00041631158092059195,-0.3016239106655121,0.8482183814048767,-9.77368450164795
82856182000,4.463733057491481e-05,-0.00040439184522256255,0.0003193709417246282,-0.3002432882785797,0.854353666305542,-9.77464771270752
82863060000,0.00023724041238892823,-0.00044246515608392656,0.0002978456031996757,-0.29990100860595703,0.8521713614463806,-9.771310806274414
82870083000,0.002801749389618635,0.0012314661871641874,-0.002896995982155204,-0.3253795802593231,0.8993863463401794,-9.761088371276855
82883926000,-0.0009412657236680388,0.0003534355200827122,0.0008498039096593857,-0.2817968726158142,0.9104186296463013,-9.765345573425293
82890919000,0.0018754575867205858,0.002695671748369932,-0.002819374203681946,-0.32629382610321045,0.9093694686889648,-9.769327163696289
82897785000,-0.001044978853315115,0.0007950967410579324,2.175089502998162e-05,-0.2789580523967743,0.8175870776176453,-9.77862548828125
82904854000,-0.0008764266967773438,0.00015035242540761828,0.0003280834062024951,-0.30055683851242065,0.8446958661079407,-9.774307250976562
82918695000,-0.00021332490723580122,-0.0005015757051296532,0.0004245814634487033,-0.30150172114372253,0.8481836318969727,-9.773127555847168
82918695000,-0.00021332490723580122,-0.0005015757051296532,0.0004245814634487033,-0.30150172114372253,0.8481836318969727,-9.773127555847168
82935440000,0.0013608644949272275,-0.0017754023429006338,-0.00019840276218019426,-0.33859437704086304,0.8368821144104004,-9.740620613098145
82942325000,-0.001114127691835165,-0.0010586490388959646,0.0007658555405214429,-0.2587020695209503,0.8519636392593384,-9.764376640319824
82949232000,0.001487010158598423,0.0019460554467514157,-0.0027454884257167578,-0.32012316584587097,0.9111289978027344,-9.766779899597168
82956218000,-0.0012609733967110515,0.00037216045893728733,-5.158814019523561e-06,-0.27789393067359924,0.8182498812675476,-9.778116226196289
82970202000,-0.0005714631988666952,-0.00017670312081463635,0.00032029958674684167,-0.30014100670814514,0.8501282334327698,-9.774263381958008
82977080000,-0.00016382362809963524,-0.0004529280122369528,0.00041247482295148075,-0.30058467388153076,0.8476623296737671,-9.77222728729248
82983944000,0.00012866660836152732,-0.00025704491417855024,0.00032120279502123594,-0.2990861237049103,0.8539031744003296,-9.773655891418457
82990937000,0.00031818216666579247,-0.00022215547505766153,0.0003064765769522637,-0.2993465065956116,0.8520293235778809,-9.77027416229248
83004913000,0.0028547027613967657,0.0015774177154526114,-0.002881787484511733,-0.32505014538764954,0.8996819257736206,-9.76020622253418
83011764000,-0.0011491368059068918,-0.003738878294825554,0.0028965971432626247,-0.28167781233787537,0.7436571717262268,-9.7401704788208
83018789000,-0.000929119938518852,0.00046621495857834816,0.0009319297969341278,-0.2819017171859741,0.9089840054512024,-9.766378402709961
83025645000,0.0018806494772434235,0.00274608819745481,-0.0027341151144355536,-0.326495498418808,0.9092797040939331,-9.770450592041016
83032561000,-0.0010019438341259956,0.0009015246760100126,2.8129128622822464e-05,-0.2793627083301544,0.8190933465957642,-9.778985023498535
83046454000,-0.0005193622200749815,-0.0002672738628461957,0.0004385183856356889,-0.30161070823669434,0.8476645946502686,-9.773900985717773
83053575000,-0.00022348834318108857,-0.000233990911510773,0.0003372184874024242,-0.30047279596328735,0.8542428016662598,-9.7757568359375
83060411000,4.1544786654412746e-05,-0.00015253624587785453,0.00020164424495305866,-0.30022546648979187,0.8550748825073242,-9.775349617004395
83067335000,0.00027642500936053693,-0.0004944163374602795,0.0002765529789030552,-0.3008503317832947,0.8488483428955078,-9.771140098571777
83074279000,0.0029084959533065557,0.0010269959457218647,-0.0028759860433638096,-0.3259272873401642,0.8972391486167908,-9.759838104248047
83088189000,-0.0009378637769259512,0.00013198796659708023,0.0009376769885420799,-0.28263163566589355,0.9047126173973083,-9.764392852783203
83095085000,0.0018756582867354155,0.0024906431790441275,-0.0026931948959827423,-0.3257141709327698,0.9086606502532959,-9.767115592956543
83102078000,-0.0010690244380384684,0.0008734010625630617,4.618961247615516e-05,-0.278050035238266,0.8207715749740601,-9.779375076293945
83109021000,-0.0008936852100305259,0.00025997066404670477,0.0003335963992867619,-0.3004201054573059,0.8450890779495239,-9.774316787719727
83115987000,-0.0006329398020170629,-7.834838470444083e-05,0.0004218529211357236,-0.3008035719394684,0.8494644165039062,-9.775075912475586
83129813000,-2.0351624698378146e-05,-0.00020572352514136583,0.000284210400423035,-0.3001062273979187,0.8536280989646912,-9.775177955627441
83136977000,0.0002210726379416883,-0.0005351937143132091,0.0003639155183918774,-0.3006186783313751,0.8487940430641174,-9.771329879760742
83143690000,0.002939745783805847,0.001053596381098032,-0.0028653652407228947,-0.3264297544956207,0.8983351588249207,-9.760297775268555
83157684000,0.001781267928890884,0.0015909620560705662,-0.0021942653693258762,-0.310055136680603,0.9515679478645325,-9.75662612915039
83164514000,-0.0015461128205060959,0.0011803946690633893,0.00016561197116971016,-0.27441543340682983,0.8318592309951782,-9.775056838989258
83171544000,-0.001269688829779625,0.0006711567984893918,0.00037489316309802234,-0.3005720376968384,0.8460899591445923,-9.774978637695312
83178413000,-0.0008612406672909856,0.0003903658362105489,0.00037063477793708444,-0.3015086352825165,0.850426435470581,-9.776693344116211
83192327000,-5.314511508913711e-05,-0.00010415030556032434,0.0003226559201721102,-0.3016240894794464,0.8520599603652954,-9.776304244995117
83199250000,0.00025225855642929673,-0.0002866752911359072,0.00029999675462022424,-0.3009049594402313,0.8514183759689331,-9.77460765838623
83206280000,0.00041625581798143685,-0.0001865811354946345,0.00019242441339883953,-0.29982343316078186,0.8550800681114197,-9.77353286743164
83213143000,0.0030136448331177235,0.0009807469323277473,-0.002821087371557951,-0.32670995593070984,0.893345057964325,-9.75940990447998
83220258000,-0.001150420866906643,-0.003987169824540615,0.0028904471546411514,-0.2803683280944824,0.7462612390518188,-9.737740516662598
83234002000,0.0018732920289039612,0.002745823236182332,-0.002811521990224719,-0.32639026641845703,0.9095447659492493,-9.7689790725708
83240971000,-0.0010595708154141903,0.0008388974238187075,2.616857091197744e-05,-0.2789650559425354,0.817855179309845,-9.778913497924805
83247896000,-0.0008889064774848521,0.00016850722022354603,0.000331847375491634,-0.3007068932056427,0.8446640372276306,-9.774466514587402
83254864000,-0.0005724282236769795,-0.00010083365486934781,0.0003438453422859311,-0.30131781101226807,0.8508545756340027,-9.775538444519043
83261775000,-0.00022453884594142437,-0.0004974007606506348,0.0004246373719070107,-0.30146583914756775,0.8483545184135437,-9.773407936096191
83275646000,0.0002311517164343968,-0.0004284794849809259,0.00030773229082114995,-0.2998184859752655,0.8521977663040161,-9.771045684814453
83282604000,0.0028769089840352535,0.0011214318219572306,-0.002863667206838727,-0.32604724168777466,0.897541880607605,-9.759709358215332
83289594000,-0.0012700147926807404,-0.00372355617582798,0.0027946666814386845,-0.2799954116344452,0.7483765482902527,-9.740649223327637
83296470000,-0.0009461132576689124,0.0002061034319922328,0.0009462116868235171,-0.282727986574173,0.9048789739608765,-9.76522445678711
83310375000,-0.001033529406413436,0.0008375695906579494,2.8450122044887394e-05,-0.27905911207199097,0.8178926706314087,-9.778724670410156
83317366000,-0.0008619814179837704,0.0001783515908755362,0.0003349745529703796,-0.3006659746170044,0.844647228717804,-9.774271011352539
83324278000,-0.0005528105539269745,-7.884058868512511e-05,0.0003481333260424435,-0.30124324560165405,0.8509228229522705,-9.775425910949707
83331176000,-0.00020349989063106477,-0.000485132506582886,0.00043131387792527676,-0.30156686902046204,0.8482133150100708,-9.773148536682129
83345160000,0.00024271132133435458,-0.0004146949213463813,0.00031643640249967575,-0.29995402693748474,0.8521628379821777,-9.771126747131348
83352154000,0.0028841858729720116,0.0011349888518452644,-0.002857304411008954,-0.32607823610305786,0.8976646661758423,-9.759781837463379
83359063000,-0.001265243859961629,-0.0037151684518903494,0.0028005046769976616,-0.28004515171051025,0.748445987701416,-9.740727424621582
83365908000,-0.0009519486338831484,0.00021916371770203114,0.0009516044519841671,-0.2827267646789551,0.9049992561340332,-9.765388488769531
83372923000,0.001904625678434968,0.002516539068892598,-0.0026897480711340904,-0.326252818107605,0.9085795879364014,-9.767958641052246
83386959000,-0.0008666858193464577,0.00023258797591552138,0.0003402376896701753,-0.30073606967926025,0.8450095653533936,-9.774249076843262
83393738000,-0.0005581218283623457,-3.2490643206983805e-05,0.0003519075980875641,-0.3013356924057007,0.850914716720581,-9.775354385375977
83400711000,-0.00021820090478286147,-0.00043453986290842295,0.0004333082470111549,-0.3015294373035431,0.8483885526657104,-9.773332595825195
83407727000,4.0570012060925364e-05,-0.0003461662563495338,0.0003357811947353184,-0.3002582788467407,0.8544774055480957,-9.774415969848633
83421570000,0.00027422525454312563,-0.00034093018621206284,0.0003209548012819141,-0.299032598733902,0.8526251912117004,-9.767546653747559
83428452000,0.0028357733972370625,0.0012588382232934237,-0.0028488237876445055,-0.32566770911216736,0.8981168866157532,-9.758393287658691
83435479000,-0.0013217178639024496,-0.003606329206377268,0.00280854944139719,-0.28008443117141724,0.7486921548843384,-9.740862846374512
83442324000,0.0016433877171948552,0.0017996288370341063,-0.002220353577286005,-0.30977684259414673,0.9521592259407043,-9.75928020477295
83456266000,-0.0012839112896472216,0.0005886213621124625,0.0003761151456274092,-0.3006320893764496,0.8459933400154114,-9.774930953979492
83463162000,-0.0008800290524959564,0.00030953146051615477,0.0003716951177921146,-0.30156436562538147,0.8505109548568726,-9.776638984680176
83470188000,-0.0004527471319306642,4.818275920115411e-05,0.0003440988075453788,-0.3016899824142456,0.8508697748184204,-9.77686595916748
83477044000,-7.835593714844435e-05,-0.00017283513443544507,0.0003204104723408818,-0.30137166380882263,0.8511974811553955,-9.775975227355957
83484005000,0.0002216881257481873,-0.00035250114160589874,0.000305976253002882,-0.3007983863353729,0.8512887358665466,-9.774245262145996
83497887000,0.0029980847612023354,0.0010997136123478413,-0.0028617794159799814,-0.32611772418022156,0.8976315259933472,-9.759138107299805
83504964000,-0.0012157559394836426,-0.0037170290015637875,0.002795614767819643,-0.27982449531555176,0.7488095164299011,-9.739835739135742
83511774000,0.0017878965009003878,0.0015940495068207383,-0.0021976674906909466,-0.31015652418136597,0.9504989385604858,-9.756240844726562
83518816000,-0.0015973546542227268,0.0011980552226305008,0.00017342757200822234,-0.27431732416152954,0.8321450352668762,-9.775221824645996
83525689000,-0.0014002565294504166,0.0007940515642985702,0.000356160628143698,-0.3001462519168854,0.8479992151260376,-9.776588439941406
83539608000,-0.00046963890781626105,8.444127161055803e-05,0.0003599007031880319,-0.3011343777179718,0.8534278869628906,-9.77810287475586
83546498000,-7.043563527986407e-05,-0.0001412974379491061,0.00031985636451281607,-0.30144408345222473,0.8512163162231445,-9.776381492614746
83553534000,0.00023455804330296814,-0.00032477377681061625,0.00030127575155347586,-0.3009643256664276,0.8513755798339844,-9.774632453918457
83560432000,0.0004140025412198156,-0.0004280261346139014,0.0002984015445690602,-0.30018240213394165,0.8517814874649048,-9.77159595489502
83574343000,-0.0012066380586475134,-0.0037143623922020197,0.0027909863274544477,-0.2799599766731262,0.7487453818321228,-9.73991870880127
83581223000,-0.0008923736168071628,0.0001718005514703691,0.0009417237597517669,-0.283082515001297,0.9048144817352295,-9.764081954956055
83588260000,0.0018504075706005096,0.002747919876128435,-0.002792033366858959,-0.3255227506160736,0.9123221635818481,-9.768926620483398
83595148000,-0.0010639317333698273,0.0008330702548846602,2.8873555493191816e-05,-0.27932536602020264,0.8178495764732361,-9.778932571411133
83602100000,-0.0008944666478782892,0.00016424478963017464,0.00033413968048989773,-0.3007964789867401,0.8447155952453613,-9.774544715881348
83615933000,-0.00022977241314947605,-0.0005041245021857321,0.00042568618664518,-0.30156606435775757,0.848395824432373,-9.773482322692871
83622971000,3.7565070670098066e-05,-0.00040923195774666965,0.00032766867661848664,-0.30028969049453735,0.8544360399246216,-9.774425506591797
83629841000,0.0002265378861920908,-0.00044056272599846125,0.00030850330949760973,-0.2999286949634552,0.8521761894226074,-9.771031379699707
83636867000,0.0028711576014757156,0.0011094490764662623,-0.0028627950232475996,-0.32613837718963623,0.8975521922111511,-9.759686470031738
83643752000,-0.0012790383771061897,-0.0037307736929506063,0.0027952073141932487,-0.2800482511520386,0.7484370470046997,-9.740677833557129
83657662000,0.0018390435725450516,0.0027475610841065645,-0.0027862670831382275,-0.32522720098495483,0.9123287200927734,-9.7692289352417
83664544000,-0.0010748871136456728,0.0008666766807436943,3.2091116736410186e-05,-0.2791076898574829,0.8180116415023804,-9.778970718383789
83671572000,-0.0008909180760383606,0.0001972668687812984,0.00033582933247089386,-0.3008582592010498,0.8446029424667358,-9.774430274963379
83678509000,-0.0005716942832805216,-7.186597213149071e-05,0.0003488242218736559,-0.30141589045524597,0.8508437275886536,-9.775609970092773
83692370000,4.706409526988864e-05,-0.000383935373974964,0.0003316960937809199,-0.3003247082233429,0.8544416427612305,-9.7744779586792
83699276000,0.0002450394385959953,-0.0004280664725229144,0.00031023373594507575,-0.30003979802131653,0.8521997332572937,-9.771463394165039
83706325000,0.0028925978112965822,0.0011095076333731413,-0.0028615419287234545,-0.32624420523643494,0.8975390195846558,-9.759845733642578
83713260000,-0.0012623884249478579,-0.0037337467074394226,0.0027963006868958473,-0.28009578585624695,0.7484716176986694,-9.740649223327637
83720382000,-0.0008910209289751947,0.00013284897431731224,0.0009420349961146712,-0.2832518517971039,0.9045517444610596,-9.764410018920898
83734078000,-0.0010749916546046734,0.0008643701439723372,3.349930921103805e-05,-0.27909648418426514,0.8180783987045288,-9.778905868530273
83741055000,-0.0008964221342466772,0.00019728520419448614,0.00033814163180068135,-0.3008539080619812,0.8446393013000488,-9.774380683898926
83748013000,-0.0005768638802692294,-7.264752639457583e-05,0.00035035284236073494,-0.3014656603336334,0.8508473634719849,-9.775530815124512
83755038000,-0.00022699867258779705,-0.00047406647354364395,0.00043117906898260117,-0.3016395568847656,0.8483549952507019,-9.773442268371582
83768969000,0.0002406224812148139,-0.0004294970422051847,0.00031198302167467773,-0.3000909090042114,0.8521938920021057,-9.77149486541748
83775768000,0.0028883828781545162,0.0011073623318225145,-0.002858735155314207,-0.3262629508972168,0.8975198268890381,-9.759861946105957
83782687000,-0.0005972982617095113,-0.00013166575809009373,-4.500143404584378e-07,-0.27467066049575806,0.8214174509048462,-9.766623497009277
83789714000,-0.0012279953807592392,-0.004157775081694126,0.003156276885420084,-0.303824782371521,0.7737717628479004,-9.743329048156738
83803652000,-0.00143854517955333,0.0012598484754562378,0.0001742626918712631,-0.2745133340358734,0.8323488235473633,-9.775511741638184
83810504000,-0.0011544007575139403,0.0007479606429114938,0.00038120566750876606,-0.3007442057132721,0.8461180925369263,-9.775162696838379
83817441000,-0.0007597713265568018,0.00045698031317442656,0.00037615475594066083,-0.30169808864593506,0.850560188293457,-9.776773452758789
83824460000,-0.00041757128201425076,0.00010671760537661612,0.0004229251353535801,-0.3014114201068878,0.849811315536499,-9.776871681213379
83831329000,2.6739289751276374e-06,-7.65480799600482e-05,0.00032902005477808416,-0.3018898665904999,0.8521987199783325,-9.776226043701172
83845299000,0.0004487080150283873,-0.0004034295561723411,0.00030270934803411365,-0.30041757225990295,0.8518083095550537,-9.77165412902832
83852242000,0.0029428796842694283,0.0012564822100102901,-0.002889863681048155,-0.32552236318588257,0.8998748064041138,-9.760631561279297
83859095000,-0.00047748477663844824,-0.0003915748675353825,8.004001574590802e-05,-0.27615052461624146,0.8166396617889404,-9.764531135559082
83866084000,-0.0006149821565486491,-0.0005211788811720908,0.0003290665044914931,-0.29763922095298767,0.8487058877944946,-9.767890930175781
83879959000,-0.0003730625321622938,-0.00040476699359714985,0.0003391331702005118,-0.2989981770515442,0.8522839546203613,-9.769298553466797
83886961000,-0.00023361312923952937,-0.0001207263267133385,0.00023318358580581844,-0.29862675070762634,0.8554296493530273,-9.77086067199707
83893854000,0.0025790799409151077,0.0011400029761716723,-0.002875518286600709,-0.32704266905784607,0.894107460975647,-9.76168155670166
83900813000,-0.001427883980795741,-0.0037809982895851135,0.0027979363221675158,-0.2801687717437744,0.7475304007530212,-9.742942810058594
83907744000,-0.001003833720460534,0.00011633965186774731,0.0009467160562053323,-0.28281375765800476,0.9041942358016968,-9.766759872436523
83921725000,-0.0010349813383072615,0.0008394938195124269,5.4849180742166936e-05,-0.27776962518692017,0.8208236694335938,-9.779006004333496
83928578000,-0.0008536294917576015,0.00023975869407877326,0.000346264336258173,-0.3002638518810272,0.8449705839157104,-9.773857116699219
83935541000,-0.0006065082270652056,-7.119355723261833e-05,0.0004352297692093998,-0.30054447054862976,0.8496553897857666,-9.774736404418945
83942521000,-0.00022330421779770404,-0.00017509407189209014,0.00034652341855689883,-0.30127930641174316,0.8526965379714966,-9.774797439575195
83956442000,0.00025515054585412145,-0.00020221048907842487,0.00021334543998818845,-0.29979225993156433,0.8549840450286865,-9.773659706115723
83963410000,0.0029653054662048817,0.0010341685265302658,-0.002881779568269849,-0.32705432176589966,0.8945621252059937,-9.760697364807129
83970588000,-0.0012772169429808855,-0.0039009389001876116,0.0028691929765045643,-0.28007861971855164,0.7505487203598022,-9.7409029006958
83977498000,-0.0009579287143424153,0.00011746620293706656,0.0010691428324207664,-0.2816426753997803,0.9037991166114807,-9.762767791748047
83991463000,-0.0010310654761269689,0.0009288699366152287,5.0388109229970723e-05,-0.2789599597454071,0.8184506893157959,-9.778718948364258
83998433000,-0.0008668126538395882,0.00026193796657025814,0.00035049172583967447,-0.30062127113342285,0.8449392318725586,-9.774221420288086
84005388000,-0.0006130319088697433,-9.68797248788178e-05,0.00044651157804764807,-0.3008093237876892,0.8494473695755005,-9.775287628173828
84012288000,-0.00023211179359350353,-0.00021652183204423636,0.00035006465623155236,-0.3014587163925171,0.8529344201087952,-9.775156021118164
84019250000,5.4081378038972616e-05,-0.0003645156975835562,0.0003260844969190657,-0.3005613386631012,0.8517045974731445,-9.773838996887207
84033107000,0.0028813336975872517,0.0009143117349594831,-0.0028005335479974747,-0.3266281187534332,0.8932523727416992,-9.75986385345459
84040134000,-0.0012458828277885914,-0.004035038873553276,0.002906269859522581,-0.28017714619636536,0.7463575601577759,-9.738377571105957
84047089000,0.0017148524057120085,0.0017803327646106482,-0.0022630251478403807,-0.3085878789424896,0.9567776322364807,-9.757185935974121
84054157000,-0.0015949467197060585,0.001155278761871159,0.00016724929446354508,-0.27505579590797424,0.8294090628623962,-9.775359153747559
84067868000,-0.0008877050713635981,0.00012082967441529036,0.0004694984818343073,-0.302381306886673,0.8446752429008484,-9.774371147155762
84074843000,-0.0004815010470338166,8.071702904999256e-05,0.00037473137490451336,-0.30085787177085876,0.8533786535263062,-9.777853012084961
84081888000,-8.379635983146727e-05,-0.00013344644685275853,0.000334726384608075,-0.30122455954551697,0.851313591003418,-9.776201248168945
84088783000,0.00022013676061760634,-0.0003109303070232272,0.00031673183548264205,-0.300774484872818,0.8514459729194641,-9.774494171142578
84095689000,0.0003227534471079707,-0.0002765881654340774,0.0002869995660148561,-0.2992759048938751,0.8538640737533569,-9.773178100585938
84109513000,-0.0012287602294236422,-0.003697995562106371,0.002814910374581814,-0.27881547808647156,0.7514662742614746,-9.739195823669434
84116449000,0.0017760868649929762,0.0016384023474529386,-0.0021831379272043705,-0.30990907549858093,0.9510269165039062,-9.756287574768066
84123365000,-0.001595292123965919,0.0012275654589757323,0.00018389298929832876,-0.2743321657180786,0.8321605324745178,-9.77527904510498
84130353000,-0.0013323340099304914,0.000884827459231019,0.0002890289470087737,-0.30056846141815186,0.849287748336792,-9.77694034576416
84144231000,-0.00047224387526512146,7.391645340248942e-05,0.0003691492020152509,-0.3010759651660919,0.8533486127853394,-9.7781343460083
84151163000,-7.925507088657469e-05,-0.0001519564975751564,0.00032871600706130266,-0.3013259172439575,0.8513518571853638,-9.77647876739502
84158079000,0.0002296973834745586,-0.0003493585390970111,0.0003115762665402144,-0.30095869302749634,0.8512967228889465,-9.774554252624512
84165063000,0.00039496590034104884,-0.0004322185704950243,0.0003077627334278077,-0.29992684721946716,0.8520362973213196,-9.771537780761719
84178953000,-0.001157581340521574,-0.004004778806120157,0.0028935212176293135,-0.28130584955215454,0.7438242435455322,-9.738419532775879
84185904000,0.0017695778515189886,0.0015864090528339148,-0.0021696535404771566,-0.3090208172798157,0.9532713890075684,-9.75528621673584
84192806000,-0.0016287330072373152,0.0012418514816090465,0.0001847544772317633,-0.2741459608078003,0.8324916362762451,-9.775087356567383
84199725000,-0.0013604641426354647,0.0009157914901152253,0.00028423138428479433,-0.30051541328430176,0.8495418429374695,-9.77729606628418
84213626000,-0.0004725953913293779,8.265464566648006e-05,0.00036364037077873945,-0.3011654019355774,0.8533399105072021,-9.778363227844238
84220625000,-6.735313218086958e-05,-0.0001561359385959804,0.00032278927392326295,-0.3016432225704193,0.8514571785926819,-9.776594161987305
84227500000,0.00024493737146258354,-0.00035858750925399363,0.00030662352219223976,-0.30092641711235046,0.8512420654296875,-9.774703979492188
84234464000,0.0004085032269358635,-0.0004408888635225594,0.0003036364505533129,-0.29994866251945496,0.8520190715789795,-9.771553993225098
84241395000,0.002927056746557355,0.001224164618179202,-0.0028858198784291744,-0.32537558674812317,0.8996120095252991,-9.760444641113281
84255293000,0.0017777103930711746,0.0015805058646947145,-0.002174575813114643,-0.3090781569480896,0.953218936920166,-9.75522232055664
84262206000,-0.0016266492893919349,0.0012387927854433656,0.00018168911628890783,-0.27414149045944214,0.8324876427650452,-9.775068283081055
84269153000,-0.00135423569008708,0.0009098203154280782,0.00027914156089536846,-0.30059975385665894,0.8495230078697205,-9.777342796325684
84276119000,-0.0008810245781205595,0.00014449708396568894,0.0004552610917016864,-0.3028613030910492,0.8445447683334351,-9.774909973144531
84290053000,-6.148082320578396e-05,-0.00016416005382779986,0.0003186250105500221,-0.3016675114631653,0.8514445424079895,-9.776618003845215
84296941000,0.00025341007858514786,-0.00036869815085083246,0.0003016308764927089,-0.30100002884864807,0.851200520992279,-9.774670600891113
84304026000,0.0003376817621756345,-0.0003257323114667088,0.0002766707038972527,-0.2993094325065613,0.8537626266479492,-9.772587776184082
84310932000,0.003029830288141966,0.0008015076164156199,-0.002714446047320962,-0.3269710838794708,0.8916771411895752,-9.757879257202148
84324860000,0.001799639081582427,0.001638237270526588,-0.002194911241531372,-0.3101653754711151,0.9510257244110107,-9.756179809570312
84331770000,-0.0015837278915569186,0.0012326263822615147,0.00017323331849183887,-0.27441442012786865,0.8321586847305298,-9.77531623840332
84338746000,-0.001317512826062739,0.0008825131226330996,0.00027643589419312775,-0.30072593688964844,0.8492738008499146,-9.777236938476562
84345658000,-0.0008593125967308879,0.0001230765483342111,0.0004530374426394701,-0.3028266131877899,0.8445877432823181,-9.77491283416748
84352627000,-0.0004525330732576549,5.444022826850414e-05,0.0003560313198249787,-0.30120447278022766,0.8533345460891724,-9.778329849243164
84366507000,0.0002578994317445904,-0.00038475170731544495,0.0003017368435394019,-0.3010872006416321,0.8511301279067993,-9.77458667755127
84373519000,0.00041067032725550234,-0.0004590539319906384,0.0002999051648657769,-0.29997894167900085,0.8519788980484009,-9.77107048034668
84380471000,0.002917075529694557,0.001221693237312138,-0.0028888320084661245,-0.32532432675361633,0.8997011184692383,-9.76025390625
84387399000,-0.0011568446643650532,-0.0040103779174387455,0.002884818706661463,-0.28143197298049927,0.7437538504600525,-9.73838996887207
84394305000,0.0017729458631947637,0.0015784807037562132,-0.0021787318401038647,-0.3091442584991455,0.9532098174095154,-9.75534439086914
84408237000,-0.001350043574348092,0.0009011938236653805,0.00027469356427900493,-0.30066701769828796,0.8494672775268555,-9.777376174926758
84415124000,-0.0008767070830799639,0.00013810209929943085,0.00045096268877387047,-0.3029073476791382,0.8445361256599426,-9.774975776672363
84422096000,-0.0005391104496084154,0.00019827618962153792,0.0003292173787485808,-0.30053967237472534,0.8552179336547852,-9.779799461364746
84429039000,-4.3387204641476274e-05,-0.00021023527369834483,0.00030182095360942185,-0.30282270908355713,0.8496558666229248,-9.775885581970215
84436029000,0.00026687647914513946,-0.0004184224526397884,0.00029521487886086106,-0.3009621202945709,0.8510331511497498,-9.774750709533691
84449859000,0.003014668822288513,0.0010629021562635899,-0.002867499366402626,-0.32597583532333374,0.8978074193000793,-9.758735656738281
84456829000,-0.0012121980544179678,-0.0037383348681032658,0.002788803307339549,-0.27980905771255493,0.7488360404968262,-9.739531517028809
84463756000,-0.0009136988664977252,0.00017653300892561674,0.0009435040410608053,-0.28289154171943665,0.9049503803253174,-9.764139175415039
84470770000,0.001800954807549715,0.0026435954496264458,-0.002712977584451437,-0.3253304064273834,0.9106812477111816,-9.768585205078125
84477629000,-0.0010527262929826975,0.0008267916273325682,3.540886245900765e-05,-0.2795076370239258,0.8191877603530884,-9.779345512390137
84491567000,-0.0006071290699765086,-0.00018524567713029683,0.0004198895476292819,-0.30099719762802124,0.8496023416519165,-9.775493621826172
84498456000,-0.00020301906624808908,-0.00031798146665096283,0.0003307233564555645,-0.30175188183784485,0.8524607419967651,-9.775107383728027
84505436000,8.996084216050804e-05,-0.00045422810944728553,0.00030947363120503724,-0.30066484212875366,0.8515501022338867,-9.77371883392334
84512360000,0.00024241735809482634,-0.0002839075750671327,0.0002044042048510164,-0.2994838058948517,0.8552255630493164,-9.772509574890137
84526259000,-0.0005668281228281558,-0.0004382356710266322,0.000103970683994703,-0.27489370107650757,0.8189594745635986,-9.76416301727295
84533227000,-0.001286300364881754,-0.004142368212342262,0.0031771219801157713,-0.30263763666152954,0.7766472101211548,-9.742172241210938
84540210000,0.0018093963153660297,0.001705884002149105,-0.002152302535250783,-0.3104635179042816,0.9563549160957336,-9.756762504577637
84547097000,-0.0014277281006798148,0.0013026153901591897,0.00016930220590438694,-0.274789035320282,0.832167387008667,-9.776270866394043
84554109000,-0.0011290200054645538,0.0007698815315961838,0.00037621072260662913,-0.30083167552948,0.845969557762146,-9.775440216064453
84567912000,-0.00031482300255447626,0.00017041154205799103,0.00034269774914719164,-0.3018428385257721,0.851040244102478,-9.777372360229492
84574891000,-1.9603670807555318e-05,-0.00017265707720071077,0.00039382281829603016,-0.30128324031829834,0.8499495983123779,-9.776005744934082
84581826000,0.00031779997516423464,-0.00031648989534005523,0.0003090545942541212,-0.30142953991889954,0.8525118827819824,-9.774551391601562
84588895000,0.003083213232457638,0.001039791852235794,-0.002880173735320568,-0.3275419771671295,0.8970128893852234,-9.763768196105957
84595728000,-0.0004038566548842937,-0.0002657695731613785,-1.9101222278550267e-05,-0.27496257424354553,0.8212586641311646,-9.767518997192383
84609608000,-0.0004782795440405607,-0.0005238994490355253,0.0003639641508925706,-0.2977779507637024,0.854941725730896,-9.767285346984863
84616515000,-0.0003741094551514834,-0.00017879714141599834,0.00024160643806681037,-0.2983914315700531,0.856126070022583,-9.770047187805176
84623514000,-0.0001654025400057435,-0.0003707042778842151,0.00031324016163125634,-0.2998729348182678,0.8493466377258301,-9.769051551818848
84630416000,-5.977903492748737e-05,-0.0002935847151093185,0.00033108549541793764,-0.29856130480766296,0.8520066738128662,-9.768359184265137
84644355000,-0.0013186591677367687,-0.003936374559998512,0.0028937291353940964,-0.281378835439682,0.7419523000717163,-9.741511344909668
84651273000,0.001700915046967566,0.0018084527691826224,-0.0022755865938961506,-0.30897319316864014,0.955661416053772,-9.759796142578125
84658279000,-0.002168044215068221,-0.0023289425298571587,0.0028880429454147816,-0.28050723671913147,0.7595372796058655,-9.752522468566895
84665138000,-0.0012127803638577461,0.0009048813953995705,0.0009671095758676529,-0.28792715072631836,0.9003541469573975,-9.779958724975586
84672123000,0.0018349199090152979,0.002941603772342205,-0.002682421123608947,-0.3281038999557495,0.9067030549049377,-9.773268699645996
84685987000,-0.0007433135760948062,0.0003426142502576113,0.0003442239831201732,-0.30181655287742615,0.8446565866470337,-9.777193069458008
84692938000,-0.0003712331526912749,-0.00024750264128670096,0.0004511601582635194,-0.30256301164627075,0.8475317358970642,-9.775887489318848
84699865000,-5.891092587262392e-05,-0.00028733405633829534,0.0003460937296040356,-0.3012182414531708,0.8542920351028442,-9.777090072631836
84706844000,0.00022055245062801987,-0.00046789011685177684,0.00031185292755253613,-0.30116891860961914,0.8519480228424072,-9.774313926696777
84713751000,0.00033864440047182143,-0.00033172452822327614,0.00020747385860886425,-0.29982122778892517,0.8553889989852905,-9.77225112915039
84727633000,0.002836373867467046,0.0011258472222834826,-0.0028344239108264446,-0.3257814645767212,0.8991486430168152,-9.756446838378906
84734571000,-0.000698405085131526,-0.0002598115534055978,0.00011753252329071984,-0.27454873919487,0.8187729716300964,-9.76382064819336
84741613000,-0.0007791420794092119,-0.00018822407582774758,0.00024484412278980017,-0.2976941466331482,0.8521296977996826,-9.770913124084473
84748495000,-0.0005668262019753456,-0.0004560205852612853,0.00033542513847351074,-0.30023664236068726,0.8489576578140259,-9.769906044006348
84755477000,-0.00041560782119631767,-0.0005323225632309914,0.0004192085762042552,-0.2989794909954071,0.8503972291946411,-9.770561218261719
84769308000,0.002584355417639017,0.0011735521256923676,-0.0028379084542393684,-0.3258993625640869,0.8973034620285034,-9.76113510131836
84776289000,-0.0014182755257934332,-0.0037035851273685694,0.0028133857995271683,-0.2800714671611786,0.7480224370956421,-9.743016242980957
84783201000,0.0017155716195702553,0.0015915475087240338,-0.00218860968016088,-0.3101915717124939,0.9497475624084473,-9.759101867675781
84790201000,-0.002244353760033846,-0.0023677528370171785,0.0029827053658664227,-0.2792676091194153,0.760654091835022,-9.751922607421875
84797109000,-0.0011777938343584538,0.0009392201900482178,0.0009817668469622731,-0.28839609026908875,0.9016757011413574,-9.779682159423828
84810997000,-0.001041978015564382,0.001138151972554624,0.00014865162665955722,-0.2792280614376068,0.8189107179641724,-9.782709121704102
84817944000,-0.0007924266974441707,0.0003556355368345976,0.00043470782111398876,-0.30181050300598145,0.8446595668792725,-9.777263641357422
84824890000,-0.00034922099439427257,-0.00016992843302432448,0.00046465930063277483,-0.3031327724456787,0.8487257957458496,-9.776185035705566
84831811000,-2.6856796466745436e-05,-0.00022329892090056092,0.0003513373085297644,-0.3014681935310364,0.8543826341629028,-9.7772855758667
84845702000,0.0003835656389128417,-0.0005056026857346296,0.00031214969931170344,-0.3002791106700897,0.8522492051124573,-9.770990371704102
84852636000,0.0003300541138742119,-0.00041486936970613897,0.000328115071170032,-0.2990211844444275,0.8530086278915405,-9.766107559204102
84859637000,0.0028275817167013884,0.0012145953951403499,-0.002836457919329405,-0.3256665766239166,0.8984723091125488,-9.756978034973145
84866513000,-0.0007119848160073161,-1.3216864317655563e-05,1.9143542886013165e-05,-0.2745916247367859,0.8217996954917908,-9.765976905822754
84873582000,-0.0007192002376541495,-0.0004438610340002924,0.0003233849420212209,-0.2991499602794647,0.8460493683815002,-9.76987361907959
84887761000,-0.0003630066348705441,-0.00045981473522260785,0.0003467857022769749,-0.29934799671173096,0.8521089553833008,-9.77016544342041
84894303000,-0.00020835288160014898,-0.0001818673626985401,0.00024174520513042808,-0.2986792027950287,0.8553416132926941,-9.770914077758789
84901258000,0.0025992849841713905,0.0010923646623268723,-0.002861455548554659,-0.326997846364975,0.8941054344177246,-9.761236190795898
84908235000,-0.0014286725781857967,-0.003791190218180418,0.0028119003400206566,-0.27998581528663635,0.7477297782897949,-9.7424898147583
84922180000,0.0018978901207447052,0.002446879865601659,-0.00267408462241292,-0.3259194791316986,0.9083225727081299,-9.768253326416016
84929101000,-0.001041632262058556,0.0008614008547738194,6.99521042406559e-05,-0.27781251072883606,0.8208180665969849,-9.778977394104004
84936003000,-0.0008623979520052671,0.00026195059763267636,0.00036121145240031183,-0.3003271520137787,0.8450762033462524,-9.773846626281738
84942988000,-0.0005320862401276827,-0.00018362049013376236,0.00047461531357839704,-0.30136051774024963,0.8478190898895264,-9.773411750793457
84949884000,-0.00023545138537883759,-0.0001214025542140007,0.00037152180448174477,-0.30030834674835205,0.8545174598693848,-9.775601387023926
84963822000,0.00020304034114815295,-0.00046180514618754387,0.0003940193564631045,-0.3007034361362457,0.8489748239517212,-9.771203994750977
84970820000,0.0029370556585490704,0.0010886290110647678,-0.0028394919354468584,-0.3267185688018799,0.8983904123306274,-9.76094913482666
84977659000,-0.0012012452352792025,-0.003962770104408264,0.002911448711529374,-0.28028300404548645,0.7454792261123657,-9.739320755004883
84984590000,-0.0009689586004242301,0.00045177817810326815,0.0008865263662301004,-0.2813876271247864,0.911301851272583,-9.766175270080566
84991597000,0.0019151554442942142,0.0027079451829195023,-0.0027972410898655653,-0.3268326222896576,0.9092621207237244,-9.769624710083008
85005484000,-0.0008740752236917615,0.00015797861851751804,0.00035543518606573343,-0.3004929721355438,0.8448804616928101,-9.774019241333008
85012362000,-0.00057476811343804,-9.154120925813913e-05,0.00036797029315494,-0.30113664269447327,0.8511114120483398,-9.775148391723633
85019318000,-0.0002376530901528895,-0.0004802922485396266,0.00044958206126466393,-0.3013761043548584,0.848511815071106,-9.773029327392578
85026344000,1.7097307136282325e-05,-0.0003736759244929999,0.00035257343552075326,-0.30005332827568054,0.8546353578567505,-9.77414321899414
85040261000,0.002864413894712925,0.0011246268404647708,-0.0028398376889526844,-0.3260745108127594,0.8976126313209534,-9.759839057922363
85047129000,-0.0012848698534071445,-0.0037198583595454693,0.0028182973619550467,-0.2799181342124939,0.748572826385498,-9.740766525268555
85054112000,0.0017199567519128323,0.001631581224501133,-0.0021748398430645466,-0.30984583497047424,0.950674831867218,-9.757516860961914
85060979000,-0.0015651241410523653,0.0011545788729563355,0.00018791810725815594,-0.27481570839881897,0.8316218852996826,-9.77568531036377
85067980000,-0.0012968527153134346,0.00064639444462955,0.000399674114305526,-0.3005521297454834,0.8462684750556946,-9.774925231933594
85081877000,-0.00046398909762501717,0.0001123682304751128,0.00036300410283729434,-0.30162176489830017,0.8510996103286743,-9.777068138122559
85088840000,-0.00014387030387297273,-0.00020204659085720778,0.0004159618110861629,-0.30104613304138184,0.8499003052711487,-9.775824546813965
85095724000,0.00021568207012023777,-0.0003071727987844497,0.0003300051321275532,-0.3011094629764557,0.8525999784469604,-9.774625778198242
85102670000,0.00040589019772596657,-0.00040252605685964227,0.00031656702049076557,-0.30013060569763184,0.8521119356155396,-9.771979331970215
85116576000,-0.0012019204441457987,-0.003710559569299221,0.0028089883271604776,-0.27982601523399353,0.748915433883667,-9.739846229553223
85123539000,0.0017835225444287062,0.0016078004846349359,-0.002181829884648323,-0.3100518584251404,0.9506621360778809,-9.756278991699219
85130480000,-0.0015895551769062877,0.0011858888901770115,0.00018926594930235296,-0.27446380257606506,0.8320508599281311,-9.775041580200195
85137433000,-0.0013177935034036636,0.0006537309382110834,0.00039661533082835376,-0.3007926046848297,0.8462822437286377,-9.775229454040527
85144319000,-0.0009151847334578633,0.00037000025622546673,0.0003884917532559484,-0.3015865683555603,0.8507473468780518,-9.777058601379395
85158228000,-7.321042357943952e-05,-0.00036142615135759115,0.00043272232869639993,-0.3018695116043091,0.8479758501052856,-9.774697303771973
85165164000,0.00021036734688095748,-0.00031514192232862115,0.00033439212711527944,-0.30021676421165466,0.8541178107261658,-9.77538776397705
85172363000,0.0003882870078086853,-0.00038398068863898516,0.0003135701408609748,-0.30018115043640137,0.8523014783859253,-9.771476745605469
85179058000,0.002986180130392313,0.0011535349767655134,-0.002854911843314767,-0.3261086940765381,0.8978632688522339,-9.759446144104004
85193009000,0.001777111436240375,0.0016177591169252992,-0.0021899777930229902,-0.3101523816585541,0.9506057500839233,-9.756645202636719
85199885000,-0.0015781223773956299,0.001175620243884623,0.00017879492952488363,-0.27465131878852844,0.831924319267273,-9.775284767150879
85206892000,-0.001304973615333438,0.0006371882045641541,0.00038741069147363305,-0.30086877942085266,0.846192479133606,-9.775323867797852
85213774000,-0.0008946715970523655,0.0003373016370460391,0.000381873338483274,-0.3017513155937195,0.8505047559738159,-9.776955604553223
85220787000,-0.0004663784056901932,7.118962821550667e-05,0.00035021218354813755,-0.3017635643482208,0.8510620594024658,-9.777347564697266
85234588000,0.00022809416987001896,-0.00036465603625401855,0.00031621751259081066,-0.3013075888156891,0.8523334264755249,-9.774580001831055
85241589000,0.000395947543438524,-0.00043157540494576097,0.00030656010494567454,-0.2999946177005768,0.8521464467048645,-9.77142333984375
85248537000,0.002998743671923876,0.0011046656873077154,-0.002859150990843773,-0.3261603116989136,0.8976813554763794,-9.759087562561035
85255529000,-0.0012148700188845396,-0.0037157228216528893,0.0027987335342913866,-0.27989161014556885,0.7488149404525757,-9.739834785461426
85269308000,0.0018652935978025198,0.0025436815340071917,-0.0026815461460500956,-0.3258266746997833,0.9090949296951294,-9.767387390136719
85276293000,-0.0010714322561398149,0.0008769405540078878,5.458840314531699e-05,-0.27858152985572815,0.8207755088806152,-9.779839515686035
85283224000,-0.0008967415196821094,0.0002327327965758741,0.00034022278850898147,-0.3007926940917969,0.8451869487762451,-9.774739265441895
85290263000,-0.0006365248700603843,-0.00012724328553304076,0.00042712100548669696,-0.3011143207550049,0.8495513200759888,-9.775388717651367
85304093000,5.38721214979887e-05,-0.0004021044005639851,0.00031222664983943105,-0.3007219433784485,0.8516376614570618,-9.773961067199707
85311015000,0.00023853562015574425,-0.00027698709163814783,0.00020437514467630535,-0.29981738328933716,0.8550161123275757,-9.773273468017578
85317978000,0.0029410868883132935,0.000979442149400711,-0.0028875290881842375,-0.32717448472976685,0.8945077657699585,-9.759971618652344
85324929000,-0.0006388241890817881,-0.0003291507891844958,7.157841173466295e-05,-0.2738870084285736,0.8197702765464783,-9.765494346618652
85331832000,-0.0012331567704677582,-0.004445880651473999,0.003270026994869113,-0.30410438776016235,0.7715760469436646,-9.7405366897583
85345743000,-0.0014813238522037864,0.0013459803303703666,0.00017955676594283432,-0.2746031880378723,0.8325057029724121,-9.775866508483887
85352683000,-0.0012631017016246915,0.000965618877671659,0.00035705690970644355,-0.2999911904335022,0.8481359481811523,-9.77695369720459
85359643000,-0.000739038921892643,0.00028351478977128863,0.000463239848613739,-0.30314603447914124,0.8457057476043701,-9.77489948272705
85366534000,-0.0003397423424758017,0.0002046325826086104,0.0003621363721322268,-0.301278680562973,0.853482723236084,-9.778271675109863
85380454000,0.0003212717128917575,-0.0003076752182096243,0.00028336921241134405,-0.30178210139274597,0.8487425446510315,-9.77391242980957
85387452000,0.0030937460251152515,0.0009930916130542755,-0.0028837481513619423,-0.32767075300216675,0.8964627385139465,-9.764354705810547
85394337000,-0.00039753594319336116,-0.00031505082733929157,-2.0160585336270742e-05,-0.2749622166156769,0.8212579488754272,-9.767494201660156
85401273000,-0.0004643324064090848,-0.0008996274555101991,0.0004005096561741084,-0.2987726032733917,0.8427965641021729,-9.766348838806152
85415162000,-0.00039731920696794987,-0.00018523455946706235,0.00024494511308148503,-0.29832854866981506,0.8560900688171387,-9.7697172164917
85422120000,-0.0001898719638120383,-0.00036580205778591335,0.0003165858215652406,-0.29981401562690735,0.8493750691413879,-9.768875122070312
85429055000,-8.170490036718547e-05,-0.0002833089092746377,0.0003348418395034969,-0.2985336482524872,0.8519970774650574,-9.76832103729248
85436011000,0.002611360512673855,0.001476080040447414,-0.00294542801566422,-0.3255813419818878,0.9004671573638916,-9.762187004089355
85449895000,0.0017169076018035412,0.0017959324177354574,-0.0022764443419873714,-0.3091403841972351,0.9555516242980957,-9.759560585021973
85456892000,-0.0021859463304281235,-0.002304816385731101,0.0028920418117195368,-0.2802739143371582,0.7597026824951172,-9.752470016479492
85463809000,-0.0012104501947760582,0.0009104239288717508,0.0009683273965492845,-0.2880588173866272,0.9002816677093506,-9.779909133911133
85470834000,0.0018218208570033312,0.00296158529818058,-0.00267830491065979,-0.3280259668827057,0.9067646265029907,-9.773396492004395
85477720000,-0.001006018603220582,0.00114517065230757,6.707973079755902e-05,-0.27952706813812256,0.8202333450317383,-9.782980918884277
85491618000,-0.0003784972650464624,-0.00023743591737002134,0.0004556085041258484,-0.30259305238723755,0.8475152850151062,-9.775959968566895
85498503000,-6.30590075161308e-05,-0.0002793872554320842,0.0003490513190627098,-0.30126339197158813,0.8543103933334351,-9.777153968811035
85505557000,0.00021583180932793766,-0.000461892515886575,0.0003155605518259108,-0.30117741227149963,0.8519557118415833,-9.77437973022461
85512392000,0.0002719108306337148,-0.0003997606399934739,0.0002875885693356395,-0.2994009256362915,0.8541067838668823,-9.772053718566895
85519314000,0.00036054523661732674,-0.0006958654848858714,0.0004131251771468669,-0.3003265857696533,0.8480161428451538,-9.764713287353516
85533219000,-0.0006771067273803055,-0.0002476440859027207,9.862583829089999e-05,-0.27568191289901733,0.8159522414207458,-9.76465892791748
85540210000,-0.000820326036773622,-0.0002872468321584165,0.0003174400480929762,-0.2973913848400116,0.8504737019538879,-9.770837783813477
85547118000,-0.0005519823171198368,-0.00047983587137423456,0.00034059674362652004,-0.300569087266922,0.8500818014144897,-9.769986152648926
85554115000,-0.00040758581599220634,-0.0005387607961893082,0.0004190976032987237,-0.29894012212753296,0.8505572080612183,-9.770265579223633
85561024000,-0.00017114635556936264,-0.00038966559804975986,0.0003482519241515547,-0.29921942949295044,0.8531693816184998,-9.7694091796875
85574958000,-0.001425300957635045,-0.003693612525239587,0.002814792562276125,-0.280038982629776,0.7480288147926331,-9.742963790893555
85581869000,-0.0009617682080715895,0.0001681557623669505,0.0009535498102195561,-0.2831358313560486,0.9040732383728027,-9.766780853271484
85589035000,0.0018999651074409485,0.0027094269171357155,-0.002782240277156234,-0.3255280554294586,0.9116734266281128,-9.770456314086914
85595744000,-0.0010104875545948744,0.0008496724767610431,4.49124418082647e-05,-0.27868419885635376,0.8178473114967346,-9.77833080291748
85602658000,-0.0008428187575191259,0.00021887040929868817,0.00035221638972871006,-0.30031058192253113,0.8447892069816589,-9.77402400970459
85616556000,-0.0002136228431481868,-0.0002115083480020985,0.00035320091410540044,-0.30133622884750366,0.8527545928955078,-9.774852752685547
85623556000,6.829207995906472e-05,-0.00034359426354058087,0.00033008455648086965,-0.3004458248615265,0.8517540693283081,-9.77359390258789
85630447000,0.00026248968788422644,-0.0002353420713916421,0.00022055105364415795,-0.29972705245018005,0.8550425171852112,-9.773540496826172
85637468000,0.002900731051340699,0.0009379389230161905,-0.0027947116177529097,-0.3265847861766815,0.8933007121086121,-9.759871482849121
85644456000,-0.0012247078120708466,-0.004016735125333071,0.0029129297472536564,-0.2801915109157562,0.7463213801383972,-9.738358497619629
85658325000,-0.0015765904681757092,0.001164585817605257,0.00017194153042510152,-0.2751443088054657,0.8293821811676025,-9.775405883789062
85665193000,-0.0013327376218512654,0.0008478036615997553,0.0002954410738311708,-0.3001520037651062,0.8491504192352295,-9.776418685913086
85672239000,-0.0008825403638184071,0.00012727396097034216,0.00047471601283177733,-0.30239957571029663,0.8447188138961792,-9.774285316467285
85679084000,-0.00048213303671218455,8.959660772234201e-05,0.0003795996599365026,-0.3008311986923218,0.8534716367721558,-9.777836799621582
85692977000,0.00021621519408654422,-0.0003063128679059446,0.00032217326224781573,-0.30077889561653137,0.8514898419380188,-9.774489402770996
85699912000,0.00040191816515289247,-0.00040934429853223264,0.00031729662441648543,-0.30003175139427185,0.8519474864006042,-9.771909713745117
85706926000,0.0030113980174064636,0.0011090515181422234,-0.002847593277692795,-0.32611238956451416,0.8976536989212036,-9.75930118560791
85713819000,-0.0012063670437783003,-0.0037123304791748524,0.0028098751790821552,-0.27973952889442444,0.7489222288131714,-9.739879608154297
85727684000,-0.001598395872861147,0.001199781778268516,0.00018800988618750125,-0.2742106020450592,0.8322734832763672,-9.775158882141113
85734652000,-0.0013208698946982622,0.0006611208664253354,0.0003946613578591496,-0.30078402161598206,0.8462284207344055,-9.775283813476562
85741665000,-0.0009076027199625969,0.00035760231548920274,0.0003895198169630021,-0.3016647398471832,0.8505047559738159,-9.776948928833008
85748555000,-0.0004751835949718952,8.654984412714839e-05,0.0003581423661671579,-0.30168619751930237,0.8510551452636719,-9.77737045288086
85755554000,-8.44276073621586e-05,-0.00016173382755368948,0.0003318052040413022,-0.30152031779289246,0.851166844367981,-9.776321411132812
85769347000,0.00039313099114224315,-0.0004428618121892214,0.00031285156728699803,-0.29993247985839844,0.8520471453666687,-9.77159595489502
85776355000,0.0029955143108963966,0.0010887228418141603,-0.002851169090718031,-0.32606935501098633,0.8976964950561523,-9.759084701538086
85783295000,-0.0012234235182404518,-0.0037248232401907444,0.002806055825203657,-0.2797357141971588,0.7489016056060791,-9.73978328704834
85790345000,0.0017713868292048573,0.0015952903777360916,-0.0021853207144886255,-0.3100203275680542,0.9506144523620605,-9.75631046295166
85797166000,-0.0015957998111844063,0.0011768509866669774,0.0001856994058471173,-0.2744081914424896,0.8320103883743286,-9.775124549865723
85811067000,-0.0008987986948341131,0.00034533755388110876,0.0003865632170345634,-0.30164453387260437,0.8505409359931946,-9.777050971984863
85818001000,-0.0004641296109184623,7.677552639506757e-05,0.00035471198498271406,-0.3017066419124603,0.8510481119155884,-9.77741813659668
85824957000,-7.215308141894639e-05,-0.00017081774421967566,0.00032832365832291543,-0.3015524744987488,0.8511449098587036,-9.776328086853027
85831837000,0.00023417592456098646,-0.00036680736229754984,0.0003143113572150469,-0.30085548758506775,0.8512978553771973,-9.77457332611084
85845770000,0.002989061176776886,0.0011023792903870344,-0.0028529162518680096,-0.3259127140045166,0.897946834564209,-9.759090423583984
85852669000,-0.0012213843874633312,-0.0037209128495305777,0.002803055802360177,-0.2798558175563812,0.7488373517990112,-9.739851951599121
85859660000,0.001760520855896175,0.001609318540431559,-0.0021860923152416945,-0.3099956214427948,0.9506266117095947,-9.756558418273926
85866551000,-0.0015797403175383806,0.0011615692637860775,0.00018113752594217658,-0.2746526300907135,0.8318477272987366,-9.775203704833984
85873571000,-0.001300929463468492,0.0006262653041630983,0.0003897683636751026,-0.3007988929748535,0.8461856842041016,-9.775388717651367
85887436000,-0.0004541125672403723,6.530591053888202e-05,0.00035050290171056986,-0.301719069480896,0.8510631322860718,-9.77739429473877
85894379000,-0.00012873516243416816,-0.00025318219559267163,0.0004027210234198719,-0.301116406917572,0.849854588508606,-9.776040077209473
85901286000,0.00024368059530388564,-0.00037182323285378516,0.0003187954716850072,-0.3012373149394989,0.8523526191711426,-9.77462100982666
85908298000,0.00041194481309503317,-0.00044310823432169855,0.00030977174174040556,-0.3000917434692383,0.8520548343658447,-9.77113151550293
85915192000,0.0029983259737491608,0.0011162867303937674,-0.0028565090615302324,-0.3259284496307373,0.8979500532150269,-9.759054183959961
85929070000,0.0017786134267225862,0.0016082359943538904,-0.0021909161005169153,-0.3101159334182739,0.9505741596221924,-9.756522178649902
85935989000,-0.001575587084516883,0.0011696976143866777,0.0001787168439477682,-0.27459952235221863,0.8319008350372314,-9.775248527526855
85943032000,-0.0012966367648914456,0.0006299457745626569,0.0003869017818942666,-0.3008655905723572,0.8461663722991943,-9.775418281555176
85949900000,-0.0008828088757582009,0.0003317532246001065,0.0003796969831455499,-0.3017342686653137,0.8505373001098633,-9.777068138122559
85963814000,-4.5812135795131326e-05,-0.00038891404983587563,0.0004241794813424349,-0.3018872141838074,0.847948431968689,-9.774711608886719
85970790000,0.00023636623518541455,-0.0003409020137041807,0.0003259614750277251,-0.3002316355705261,0.8540909290313721,-9.775352478027344
85977726000,0.00039470099727623165,-0.0003886616905219853,0.00030676406458951533,-0.29995524883270264,0.8524220585823059,-9.771174430847168
85984634000,0.0030008875764906406,0.0011330903507769108,-0.002860706765204668,-0.32627755403518677,0.8976062536239624,-9.759135246276855
85991682000,-0.0012077619321644306,-0.0037022042088210583,0.0027976296842098236,-0.2799667716026306,0.7488009929656982,-9.740062713623047
86005623000,0.0017881367821246386,0.002676039934158325,-0.0027076578699052334,-0.32499462366104126,0.9111136198043823,-9.768860816955566
86012417000,-0.0011306274682283401,0.0007754100952297449,0.00011726730735972524,-0.27913060784339905,0.8179029822349548,-9.77907943725586
86019333000,-0.0008785733953118324,0.00017487903824076056,0.0003431955701671541,-0.3012937903404236,0.845865786075592,-9.77475643157959
86026336000,-0.0005337721668183804,-0.0002976582618430257,0.00044892067671753466,-0.30174610018730164,0.8478367328643799,-9.774189949035645
86033241000,-0.0002161370066460222,-0.0002652540570124984,0.00034557146136648953,-0.3006965219974518,0.8542169332504272,-9.775894165039062
86047183000,0.0002337964833714068,-0.0005895011126995087,0.00036887501482851803,-0.3008975684642792,0.8487633466720581,-9.77107048034668
86054101000,0.002915135817602277,0.001038223970681429,-0.0028568345587700605,-0.326274573802948,0.8986037969589233,-9.759439468383789
86061065000,-0.0012524786870926619,-0.003770335577428341,0.0027912205550819635,-0.2799151539802551,0.7486499547958374,-9.740182876586914
86068013000,0.0017585051245987415,0.0015743544790893793,-0.0021974777337163687,-0.30995726585388184,0.9504534006118774,-9.756731033325195
86074950000,-0.0015690046129748225,0.0011474930215626955,0.00017035701603163034,-0.27456045150756836,0.8317473530769348,-9.775272369384766
86088882000,-0.0008736402960494161,0.0003499054000712931,0.00037474429700523615,-0.3016678988933563,0.850460410118103,-9.776785850524902
86095757000,-0.000444178469479084,9.154746658168733e-05,0.00034437834983691573,-0.3017268478870392,0.8509944677352905,-9.777223587036133
86102687000,-4.125034320168197e-05,-0.00035414821468293667,0.0004209599574096501,-0.3018769323825836,0.8479323983192444,-9.77459716796875
86109676000,0.0002374976611463353,-0.00030576338758692145,0.00032369742984883487,-0.30025187134742737,0.8540619611740112,-9.775306701660156
86123592000,0.0030133426189422607,0.0011515230871737003,-0.0028668551240116358,-0.32627010345458984,0.8977807760238647,-9.759490013122559
86130482000,-0.0005217111320234835,-9.80281038209796e-05,-6.474832844105549e-06,-0.2745961844921112,0.8215384483337402,-9.766159057617188
86137400000,-0.0005681649781763554,-0.0005171656375750899,0.00030602116021327674,-0.298786997795105,0.8458439111709595,-9.76884937286377
86144376000,-0.0004644123837351799,-0.0007102287490852177,0.00044093618635088205,-0.29940447211265564,0.8486968278884888,-9.767363548278809
86158289000,0.002093436662107706,0.001907167723402381,-0.0021607321687042713,-0.3102966547012329,0.9570927619934082,-9.757235527038574
86165175000,-0.001211451250128448,0.0013844945933669806,0.0002344706008443609,-0.2745343744754791,0.8307355642318726,-9.775516510009766
86172219000,-0.0009652983862906694,0.0008292921120300889,0.0004519360954873264,-0.3007081151008606,0.8460273742675781,-9.775232315063477
86179089000,-0.0005299273179844022,0.00036884710425511,0.000471652572741732,-0.30246642231941223,0.8487600088119507,-9.775352478027344
86186046000,-0.0001932441082317382,0.0002917014353442937,0.00035317163565196097,-0.30121856927871704,0.8539942502975464,-9.777852058410645
86199911000,-0.00033441331470385194,-0.0004959579091519117,3.056155037484132e-05,-0.27898186445236206,0.8136420845985413,-9.775959968566895
