sim_time_ns,gyro_x,gyro_y,gyro_z,accel_x,accel_y,accel_z
977027914000,-0.0004533789469860494,-0.000827647338155657,-0.0025141665246337652,-0.3283727169036865,0.052694499492645264,-9.789765357971191
977034793000,-0.0007049196865409613,-9.640108328312635e-05,0.00016749463975429535,-0.2733026444911957,-0.03986203670501709,-9.813261985778809
977048669000,0.00040645786793902516,0.0003162426291964948,0.0006381660350598395,-0.2992812693119049,-0.0018206685781478882,-9.80888557434082
977055601000,0.00033889393671415746,0.00012846477329730988,0.0006582321366295218,-0.3000383973121643,-8.869171142578125e-05,-9.808427810668945
977062538000,0.00014139946142677218,1.2037926353514194e-05,0.00045608822256326675,-0.3011341691017151,0.004366695880889893,-9.808377265930176
977069436000,-0.0007733999518677592,-0.0008904668502509594,-0.0027426991146057844,-0.3289506435394287,0.05465810000896454,-9.789178848266602
977083342000,0.0003299586824141443,0.00050437415484339,0.0005314277368597686,-0.29292553663253784,-0.013088822364807129,-9.806513786315918
977090270000,0.0003743035194929689,0.0003502650070004165,0.0006406541797332466,-0.2992856204509735,-0.00215265154838562,-9.808429718017578
977097334000,0.00034048024099320173,0.00015433404769282788,0.000654618430417031,-0.300082266330719,-0.00018446147441864014,-9.808074951171875
977104160000,0.00013663042045664042,5.1434835768304765e-05,0.00045747114927507937,-0.30095335841178894,0.004322484135627747,-9.808428764343262
977111228000,-0.0005682057817466557,-0.0009525026543997228,-0.002550650155171752,-0.3281702995300293,0.05024313926696777,-9.788585662841797
977125090000,0.0009431636426597834,0.0011040694080293179,-0.002015923149883747,-0.2926405072212219,0.07732224464416504,-9.799910545349121
977131994000,-0.0007035776507109404,0.001218882855027914,0.0003058475849684328,-0.2793201208114624,-0.026200972497463226,-9.820477485656738
977138884000,0.00029893708415329456,0.0013948071282356977,0.0005498313112184405,-0.2968491017818451,-0.009786367416381836,-9.812582015991211
977145926000,0.000357652606908232,0.0009807022288441658,0.0006304671987891197,-0.3012983202934265,-0.001783415675163269,-9.81210708618164
977159942000,0.0005072595085948706,1.1659663869068027e-05,0.0008437533397227526,-0.3009222447872162,-0.004521682858467102,-9.811036109924316
977166713000,-0.00041411491110920906,-0.000979095115326345,-0.002465700963512063,-0.33064836263656616,0.056609854102134705,-9.792652130126953
977173611000,-0.0006940754828974605,-0.00045838727965019643,0.0001701608853181824,-0.27510902285575867,-0.03896886855363846,-9.815792083740234
977180610000,0.0004132153990212828,7.722462760284543e-05,0.0005264474893920124,-0.2942836880683899,-0.01209782063961029,-9.806556701660156
977194682000,0.00021945423213765025,-0.0001140531967394054,0.0004467068356461823,-0.3010180592536926,0.004194691777229309,-9.807941436767578
977201418000,-0.0005768398987129331,-0.001003888319246471,-0.0025435041170567274,-0.32768675684928894,0.05047398805618286,-9.788201332092285
977208411000,-0.0008814326720312238,6.022903835400939e-05,-4.145437924307771e-05,-0.2728153169155121,-0.03652915358543396,-9.811408996582031
977215321000,0.0002486495650373399,0.0005648450460284948,0.0004951903829351068,-0.29304608702659607,-0.0152711421251297,-9.805421829223633
977222214000,0.00042319923522882164,0.0003906853962689638,0.0006215596222318709,-0.2996058464050293,-0.003088220953941345,-9.808335304260254
977236115000,0.00048055837396532297,-3.288168227300048e-05,0.0006867048214189708,-0.3010389804840088,0.003138929605484009,-9.808749198913574
977243127000,-0.0006126367370598018,-0.0008888609590940177,-0.002698558149859309,-0.3301909565925598,0.058818504214286804,-9.789937973022461
977250085000,-0.0008242074982263148,-0.00018669228302314878,0.00013332093658391386,-0.27244997024536133,-0.042640261352062225,-9.812484741210938
977256939000,0.00032778328750282526,0.0004854208673350513,0.0005318442126736045,-0.29303520917892456,-0.013020917773246765,-9.806644439697266
977263951000,0.0003729781601577997,0.00032165678567253053,0.0006385321030393243,-0.2995418310165405,-0.0021194368600845337,-9.808562278747559
977277884000,0.00018584280041977763,-6.39076461084187e-07,0.00045081571443006396,-0.3009171187877655,0.004344180226325989,-9.808639526367188
977284756000,-0.0005508346948772669,-0.0009831959614530206,-0.00255066086538136,-0.3281646966934204,0.0503154993057251,-9.788765907287598
977291694000,-0.0008651804528199136,-2.5087501853704453e-08,-4.0066362998913974e-05,-0.27307724952697754,-0.03661394864320755,-9.813154220581055
977298694000,0.00031826927443034947,0.0004087665874976665,0.0004863784706685692,-0.2935567796230316,-0.015410661697387695,-9.805464744567871
977312637000,0.0005509991315193474,4.5583758037537336e-05,0.0008484582067467272,-0.2990640699863434,-0.004664704203605652,-9.80781364440918
977319479000,0.00044229006743989885,-4.2672414565458894e-05,0.0006934420089237392,-0.3006592392921448,0.003101915121078491,-9.808526992797852
977326458000,-0.0006421715370379388,-0.0008841039962135255,-0.002695969771593809,-0.32997822761535645,0.05883556604385376,-9.789567947387695
977333381000,-0.0008272976847365499,-0.00018669402925297618,0.00013103157107252628,-0.27236485481262207,-0.042713649570941925,-9.811948776245117
977340268000,0.0003389384946785867,0.0004940678481943905,0.0005283409263938665,-0.29284512996673584,-0.013082563877105713,-9.806404113769531
977354201000,0.00034319458063691854,0.00015284704568330199,0.0006554629071615636,-0.30003517866134644,-0.00017789006233215332,-9.808141708374023
977361214000,-0.0007062222575768828,-0.0006812286446802318,-0.002696708310395479,-0.32968926429748535,0.058040693402290344,-9.790114402770996
977368093000,-0.0008158121490851045,-0.00010430958354845643,0.0001288577332161367,-0.2730863690376282,-0.04312392324209213,-9.812800407409668
977375032000,0.0003928224614355713,0.0004778725851792842,0.000521019275765866,-0.2934557795524597,-0.013237476348876953,-9.8070707321167
977388887000,0.0001659526751609519,0.00022560970683116466,0.0004592757031787187,-0.300881028175354,0.004275813698768616,-9.80888843536377
977395930000,0.00023261812748387456,-6.535009015351534e-05,0.0006116555305197835,-0.2995772957801819,-0.0031332671642303467,-9.807504653930664
977402794000,-0.0004571115714497864,-0.0009638455230742693,-0.0025210983585566282,-0.32846933603286743,0.05230851471424103,-9.789070129394531
977409788000,-0.0008969923947006464,-0.002513051964342594,0.003698786487802863,-0.28992852568626404,-0.09842139482498169,-9.784187316894531
977416712000,0.001203072490170598,0.0010055755265057087,-0.0017727367812767625,-0.29241248965263367,0.07641395926475525,-9.800073623657227
977423614000,-0.0007666185265406966,0.0013061241479590535,0.00015649115084670484,-0.28096920251846313,-0.01767423003911972,-9.821630477905273
977437497000,0.00035159895196557045,0.0009416555985808372,0.0006232105661183596,-0.3007826805114746,-0.0025382936000823975,-9.812201499938965
977444586000,0.0003397031978238374,0.0004964093677699566,0.0006439745775423944,-0.30185818672180176,-0.0004233717918395996,-9.811844825744629
977451413000,0.0003834214876405895,4.5339169446378946e-05,0.0006358842365443707,-0.3020748496055603,-0.00027829408645629883,-9.810845375061035
977458383000,-0.00042666320223361254,-0.0010661230189725757,-0.0024277393240481615,-0.3300413489341736,0.05181179940700531,-9.79153060913086
977472217000,0.0004118440265301615,9.093258995562792e-05,0.0005307906540110707,-0.2948983907699585,-0.011681362986564636,-9.806735038757324
977479302000,0.0004612784250639379,-9.54776187427342e-05,0.0007181231630966067,-0.29964178800582886,-0.0035086125135421753,-9.807929992675781
977486132000,0.0004481603973545134,-0.00018923796596936882,0.0006604658556170762,-0.2998310923576355,0.0009109079837799072,-9.807768821716309
977493084000,-0.0006803075666539371,-0.0009151125559583306,-0.0026946719735860825,-0.32928770780563354,0.058536991477012634,-9.789397239685059
977500013000,-0.0008377298363484442,-0.00014223234029486775,0.00013320721336640418,-0.2721779942512512,-0.04288914054632187,-9.80968952178955
977513945000,0.00046868951176293194,0.000407584011554718,0.0006260977825149894,-0.29972636699676514,-0.002217724919319153,-9.808550834655762
977520843000,0.0004293295496609062,0.00019448541570454836,0.0006459816358983517,-0.3003891706466675,-0.0002488642930984497,-9.80850887298584
977527878000,0.00012902641901746392,0.0001094278777600266,0.0004582004912663251,-0.3010074496269226,0.00472065806388855,-9.809410095214844
977534737000,-0.0005415166961029172,-0.0009446283220313489,-0.002555115846917033,-0.32874929904937744,0.0501270592212677,-9.788761138916016
977541698000,-0.0008803323726169765,-3.8177764508873224e-05,-4.044461820740253e-05,-0.27355995774269104,-0.03653835505247116,-9.813580513000488
977555568000,0.00042797456262633204,0.0002832199970725924,0.0006236828048713505,-0.29905760288238525,-0.002788156270980835,-9.808870315551758
977562563000,0.0005606658523902297,1.9957544282078743e-05,0.0008481150725856423,-0.2991698682308197,-0.0046710968017578125,-9.807923316955566
977569450000,0.0004340161685831845,-6.788852624595165e-05,0.0006939115119166672,-0.30072665214538574,0.0031909942626953125,-9.808608055114746
977576445000,-0.0006674841279163957,-0.0008925774018280208,-0.002692187437787652,-0.32991787791252136,0.058880940079689026,-9.789738655090332
977583391000,-0.0008389176218770444,-0.00023128255270421505,0.00013329900684766471,-0.27267903089523315,-0.04277060925960541,-9.811116218566895
977597292000,0.00039155545528046787,0.00035838017356581986,0.0006371760391630232,-0.29937487840652466,-0.0020787864923477173,-9.808548927307129
977604181000,0.0003565027145668864,0.00015881287981756032,0.0006515698041766882,-0.3001929223537445,-0.00018510222434997559,-9.808121681213379
977611301000,0.00016931036952883005,4.650156188290566e-05,0.00045182002941146493,-0.3011173605918884,0.0042609721422195435,-9.808423042297363
977618085000,-0.000546185823623091,-0.000957385404035449,-0.0025476310402154922,-0.32821258902549744,0.05016331374645233,-9.788741111755371
977632061000,0.00034597510239109397,0.0004054390883538872,0.00048276642337441444,-0.29333072900772095,-0.015594616532325745,-9.80556869506836
977638909000,0.00043989805271849036,0.00030564938788302243,0.0006234548054635525,-0.29876524209976196,-0.002943769097328186,-9.808695793151855
977645928000,0.00035613251384347677,0.00014546151214744896,0.000652873597573489,-0.29976844787597656,-0.00014801323413848877,-9.808433532714844
977652864000,-0.000663336249999702,-0.0006978425662964582,-0.0026974454522132874,-0.3297191858291626,0.05784270167350769,-9.789986610412598
977666720000,0.000388258951716125,0.0005010571330785751,0.0005237176083028316,-0.29317712783813477,-0.013282626867294312,-9.807186126708984
977673628000,0.00042609000229276717,0.0003394957457203418,0.0006337357335723937,-0.2993309497833252,-0.0021280497312545776,-9.808738708496094
977680646000,0.00018883374286815524,0.00022377072309609503,0.0004540423396974802,-0.3009788393974304,0.004234239459037781,-9.80877685546875
977687526000,0.0002338332706131041,-5.8793099015019834e-05,0.000612023111898452,-0.2994774580001831,-0.0031006187200546265,-9.807671546936035
977694539000,-0.00045666313963010907,-0.0009603882790543139,-0.0025208608713001013,-0.3284749388694763,0.05231375992298126,-9.78911018371582
977708358000,0.0012227928964421153,0.000995689071714878,-0.0017770853592082858,-0.29239538311958313,0.07636818289756775,-9.799980163574219
977715352000,-0.0007669134065508842,0.0013086271937936544,0.00015702584641985595,-0.2808479070663452,-0.017639294266700745,-9.821785926818848
977722318000,0.0002527856267988682,0.0013032974675297737,0.0005139118293300271,-0.2971087694168091,-0.01185162365436554,-9.811415672302246
977729242000,0.0003772350028157234,0.0009325460996478796,0.0006201232899911702,-0.3008257746696472,-0.0025710612535476685,-9.81214427947998
977743143000,0.00018333732441533357,0.0001396110310452059,0.0004399730823934078,-0.3029428720474243,0.00415821373462677,-9.811317443847656
977750107000,-0.0005713225691579282,-0.0010153946932405233,-0.0025535302702337503,-0.32933735847473145,0.05028553307056427,-9.79151725769043
977756990000,-0.0008561864960938692,-0.0002544207964092493,-4.8414811317343265e-05,-0.27462413907051086,-0.03669656068086624,-9.816309928894043
977763970000,0.0005043225828558207,2.5581306545063853e-05,0.0006831630016677082,-0.2931249737739563,-0.01986701786518097,-9.805686950683594
977777938000,0.00027083326131105423,-0.00016272944048978388,0.0006176912575028837,-0.3000069856643677,-0.0025360286235809326,-9.806964874267578
977784843000,-0.0004936654586344957,-0.0009807898895815015,-0.002505023730918765,-0.3282320499420166,0.05257362127304077,-9.788534164428711
977791746000,-0.0006608503172174096,-3.189692506566644e-05,0.00016284058801829815,-0.2723197042942047,-0.04012589156627655,-9.811502456665039
977798716000,0.0003424379392527044,0.0005356732872314751,0.0005407696007750928,-0.2938048243522644,-0.011851206421852112,-9.806124687194824
977805616000,0.00039019962423481047,0.0003609424747992307,0.0006364103173837066,-0.299740731716156,-0.0019574016332626343,-9.808476448059082
977819506000,0.00015941716264933348,4.035828169435263e-05,0.0004531613376457244,-0.30126023292541504,0.004311203956604004,-9.80860710144043
977826500000,-0.0007194181089289486,-0.0009321165271103382,-0.002662189071998,-0.32939761877059937,0.05304475128650665,-9.788721084594727
977833461000,-0.0009638830670155585,-2.140132710337639e-05,-6.314527854556218e-05,-0.27251502871513367,-0.03851132094860077,-9.812575340270996
977840352000,0.0002912601630669087,0.00045220780884847045,0.0005724187358282506,-0.292928010225296,-0.01762983202934265,-9.805429458618164
977847317000,0.0006443139864131808,0.0002715778537094593,0.0008360276115126908,-0.2981756329536438,-0.006487786769866943,-9.808387756347656
977861434000,0.00016213000344578177,3.6246761737857014e-05,0.0004631983465515077,-0.301472544670105,0.005517363548278809,-9.808664321899414
977868135000,-0.0005547368200495839,-0.0009706804412417114,-0.0025501572526991367,-0.32838910818099976,0.05039343237876892,-9.788780212402344
977875041000,-0.0008977401885204017,-5.225179484114051e-05,-3.974935316364281e-05,-0.2734610140323639,-0.036446742713451385,-9.813055992126465
977882090000,0.0005239939200691879,0.00032539648236706853,0.0006812652572989464,-0.29241320490837097,-0.020041845738887787,-9.805154800415039
977888949000,0.0003369906626176089,0.000387147389119491,0.0004674378433264792,-0.3004136383533478,0.004657655954360962,-9.809548377990723
977902908000,-0.000451205822173506,-0.0008041627006605268,-0.002516265260055661,-0.3284488916397095,0.05275513231754303,-9.789772033691406
977909961000,-0.0006816891254857183,-2.89201270788908e-05,0.00016744097229093313,-0.27305638790130615,-0.040016502141952515,-9.8142671585083
977916851000,0.0003533247800078243,0.00045449359458871186,0.0005393585888668895,-0.29415032267570496,-0.011931419372558594,-9.807544708251953
977923660000,0.00046338653191924095,0.0002422356919851154,0.000628334644716233,-0.2998623251914978,-0.0022040605545043945,-9.807944297790527
977937545000,0.00013302688603289425,5.597263225354254e-06,0.00045971458894200623,-0.3008946180343628,0.004480421543121338,-9.808571815490723
977944585000,-0.0007748930365778506,-0.0008985731401480734,-0.002742710057646036,-0.3290097117424011,0.05467557907104492,-9.788978576660156
977951515000,-0.0007890143315307796,-0.00013612938346341252,0.00011505283328006044,-0.2717857360839844,-0.04418046772480011,-9.811485290527344
977958388000,0.0003568246029317379,0.0005042646662332118,0.000526431598700583,-0.2929835319519043,-0.013193860650062561,-9.80631160736084
977965377000,0.0003825126332230866,0.00035420196945779026,0.000638660800177604,-0.2992743253707886,-0.002096042037010193,-9.808424949645996
977979281000,0.0001602170232217759,5.227849760558456e-05,0.00045238921302370727,-0.3010926842689514,0.004308432340621948,-9.8082914352417
977986176000,-0.0005570889916270971,-0.0009488029754720628,-0.0025523321237415075,-0.3281537592411041,0.05025772750377655,-9.78865909576416
977993250000,-0.0011020859237760305,-0.0024239770136773586,0.0034924359060823917,-0.2907473146915436,-0.09435372054576874,-9.784317016601562
978000120000,0.0009412034414708614,0.0011243338230997324,-0.00199579494073987,-0.29235634207725525,0.07701969146728516,-9.799930572509766
978014057000,0.00028186559211462736,0.0014158409321680665,0.0005512255593203008,-0.29676273465156555,-0.009684726595878601,-9.812769889831543
978020978000,0.00037864450132474303,0.000982498750090599,0.0006271977908909321,-0.3014719486236572,-0.0019262731075286865,-9.811928749084473
978028094000,0.00035171263152733445,0.0005296742892824113,0.0006448067724704742,-0.30193042755126953,-0.00028717517852783203,-9.812094688415527
978034885000,0.00015220123168546706,0.00014240029850043356,0.0005370954750105739,-0.30281761288642883,0.0027928799390792847,-9.811518669128418
978041790000,-0.0005543801235035062,-0.0009885074105113745,-0.0025370148941874504,-0.3293728232383728,0.051321327686309814,-9.79183292388916
978055694000,0.000397901312680915,0.00011488943709991872,0.0005275029106996953,-0.2945006489753723,-0.012251973152160645,-9.806893348693848
978062707000,0.0004468656552489847,-5.030291504226625e-05,0.000626816472504288,-0.29974672198295593,-0.002025693655014038,-9.808277130126953
978069602000,0.00022711166820954531,-0.0001205466833198443,0.0004457830509636551,-0.30104178190231323,0.00415019690990448,-9.80798053741455
978076765000,-0.0005865874700248241,-0.0010098529746755958,-0.0025439986493438482,-0.327718585729599,0.05056650936603546,-9.7882661819458
978090397000,0.00045210745884105563,0.0004651425697375089,0.0006914439145475626,-0.2923373878002167,-0.019643165171146393,-9.804947853088379
978097523000,0.00031373262754641473,0.00047761810128577054,0.00046743257553316653,-0.30095627903938293,0.004543885588645935,-9.809386253356934
978104337000,0.00027201190823689103,0.00017212828970514238,0.0006186619866639376,-0.30002260208129883,-0.0024859458208084106,-9.807987213134766
978111468000,0.0003804466687142849,-4.57966816611588e-05,0.0006343024433590472,-0.30041399598121643,-0.0010290741920471191,-9.80787181854248
978118227000,-0.00023370352573692799,-0.0010460226330906153,-0.0023184262681752443,-0.3280671238899231,0.04882945120334625,-9.78903865814209
978132080000,0.00031772180227562785,0.0003656725166365504,0.0004991121822968125,-0.2939029932022095,-0.014176681637763977,-9.806127548217773
978138989000,0.0004255474195815623,0.00020813147420994937,0.0007133628823794425,-0.2991794943809509,-0.0042719244956970215,-9.808130264282227
978146037000,0.00036604891647584736,0.00011262374755460769,0.0006717987125739455,-0.2996484339237213,0.0009173452854156494,-9.808727264404297
978152886000,0.00012090535892639309,1.2507698556873947e-05,0.0004606792062986642,-0.30122700333595276,0.004778727889060974,-9.808237075805664
978159906000,-0.0005935441586188972,-0.0009723645052872598,-0.0025437993463128805,-0.3282378315925598,0.05023467540740967,-9.788446426391602
978173719000,0.00047585705760866404,0.00041639493429102004,0.0007102551171556115,-0.29188448190689087,-0.018577799201011658,-9.805825233459473
978180728000,0.0004662015417125076,0.0003609143022913486,0.0006729834130965173,-0.29990720748901367,0.0006537735462188721,-9.808877944946289
978187596000,0.00016951067664194852,0.0002388451248407364,0.00046332809142768383,-0.30133771896362305,0.00504930317401886,-9.808585166931152
978194827000,-0.0005990642821416259,-0.0007770376396365464,-0.0025407366920262575,-0.328408420085907,0.0505397766828537,-9.789185523986816
978201515000,-0.0008625762420706451,7.478485349565744e-05,-4.4325803173705935e-05,-0.2739560306072235,-0.03667079657316208,-9.814494132995605
978215425000,0.00035445322282612324,0.00030429032631218433,0.0006327228620648384,-0.2991710901260376,-0.002829611301422119,-9.808635711669922
978222323000,0.0005987677723169327,-1.8058752175420523e-05,0.000838720821775496,-0.29963022470474243,-0.005010351538658142,-9.807132720947266
978229369000,0.00045669215614907444,-8.403480751439929e-05,0.0006906595663167536,-0.30051207542419434,0.0031821876764297485,-9.808692932128906
978236220000,-0.0006421320140361786,-0.0009026371408253908,-0.002695296425372362,-0.3298385441303253,0.05886395275592804,-9.789669036865234
978250139000,0.0004096345219295472,0.0004376462893560529,0.000519385386724025,-0.2933104336261749,-0.013260617852210999,-9.805728912353516
978257039000,0.0004205258737783879,0.0003235798794776201,0.0006344537250697613,-0.2990533709526062,-0.002055048942565918,-9.808637619018555
978264081000,0.0003571717534214258,0.00014212168753147125,0.0006531968247145414,-0.30002015829086304,-9.262561798095703e-05,-9.80809211730957
978270965000,0.00014381445362232625,5.3046984248794615e-05,0.0004546760756056756,-0.30090847611427307,0.004399329423904419,-9.808438301086426
978277974000,-0.0005559550481848419,-0.0009462394518777728,-0.002551524667069316,-0.3281811475753784,0.05018153786659241,-9.78855037689209
978291772000,0.0003487213107291609,0.00041658408008515835,0.00048251464613713324,-0.2933162450790405,-0.015670374035835266,-9.805497169494629
978298829000,0.0004355850105639547,0.0003170160634908825,0.0006225028191693127,-0.2988158166408539,-0.0028054118156433105,-9.808608055114746
978305699000,0.0005739215994253755,6.406661123037338e-05,0.0008466324652545154,-0.2989204227924347,-0.004696175456047058,-9.80784797668457
978348438000,-0.0006342937122099102,-0.0008626396884210408,-0.0026963010895997286,-0.3288632035255432,0.05722852051258087,-9.790229797363281
978348903000,0.0002668182132765651,0.0012970927637070417,0.0005360140930861235,-0.2975005507469177,-0.011001557111740112,-9.811198234558105
978348903000,0.0002668182132765651,0.0012970927637070417,0.0005360140930861235,-0.2975005507469177,-0.011001557111740112,-9.811198234558105
978348903000,0.0002668182132765651,0.0012970927637070417,0.0005360140930861235,-0.2975005507469177,-0.011001557111740112,-9.811198234558105
978348903000,0.0002668182132765651,0.0012970927637070417,0.0005360140930861235,-0.2975005507469177,-0.011001557111740112,-9.811198234558105
978388663000,0.00039676512824371457,3.324315184727311e-05,0.0005982191069051623,-0.29540374875068665,-0.012229099869728088,-9.806596755981445
978402433000,0.00034416562994010746,-0.00023744243662804365,0.0006590968114323914,-0.2995186448097229,-0.0022336989641189575,-9.807523727416992
978409085000,-0.0003833990776911378,-0.0010330271907150745,-0.0023406005930155516,-0.32694944739341736,0.050124555826187134,-9.788860321044922
978416134000,-0.0006228898419067264,-0.00011837529018521309,0.00019791937666013837,-0.27341020107269287,-0.03771394491195679,-9.810373306274414
978429940000,0.0003922045580111444,0.00037018570583313704,0.0006351087940856814,-0.2997632622718811,-0.001679539680480957,-9.808443069458008
978436873000,0.00020384270465001464,0.0002445222926326096,0.00044972251635044813,-0.301277756690979,0.00404047966003418,-9.808589935302734
978443838000,-0.000554205384105444,-0.0007769056828692555,-0.0025490245316177607,-0.3284791111946106,0.05039262771606445,-9.789379119873047
978450751000,-0.0008824782562442124,8.359283674508333e-05,-4.124422412132844e-05,-0.273903489112854,-0.036487556993961334,-9.814604759216309
978464673000,0.0006274688639678061,0.00022233789786696434,0.0008390249568037689,-0.2982275187969208,-0.006270319223403931,-9.808655738830566
978471563000,0.00044142696424387395,0.00011855486081913114,0.0006980637554079294,-0.3008456826210022,0.003320544958114624,-9.809033393859863
978478581000,0.0001269568019779399,1.4832621673122048e-06,0.0004681629070546478,-0.30144453048706055,0.005476400256156921,-9.808632850646973
978485517000,-0.0005981136346235871,-0.0010016323067247868,-0.002545054769143462,-0.32841184735298157,0.050434619188308716,-9.788594245910645
978499390000,0.000493534142151475,0.00032079589436762035,0.0006860884604975581,-0.2926260530948639,-0.019770272076129913,-9.805099487304688
978506332000,0.00030894752126187086,0.00038946091081015766,0.0004721574950963259,-0.3003922700881958,0.00464630126953125,-9.809490203857422
978513309000,0.0003206652181688696,6.557427695952356e-05,0.000610528455581516,-0.30011099576950073,-0.0025840699672698975,-9.807103157043457
978520241000,0.0003678349603433162,-8.150481153279543e-05,0.0006378446705639362,-0.2997418940067291,-0.0008665621280670166,-9.807912826538086
978534176000,-0.0007314722170121968,9.680690709501505e-06,6.504151315311901e-06,-0.2739308476448059,-0.03253279626369476,-9.814126968383789
978541056000,0.00034562096698209643,0.0003184162196703255,0.0005852474714629352,-0.29409730434417725,-0.015716463327407837,-9.805375099182129
978548069000,0.00063747086096555,0.0001944468531291932,0.0008403239189647138,-0.2977291941642761,-0.00600278377532959,-9.808390617370605
978554906000,0.00045438960660248995,0.00011915608774870634,0.000697492971085012,-0.3005202114582062,0.0033342838287353516,-9.808667182922363
978561959000,-0.0007063428638502955,-0.0007004812359809875,-0.0026821293868124485,-0.32977500557899475,0.05911645293235779,-9.79018497467041
978575763000,0.0003931004903279245,0.0004893171135336161,0.000521593785379082,-0.2932969331741333,-0.013322502374649048,-9.806818008422852
978582771000,0.000423128018155694,0.00034170038998126984,0.0006337504019029438,-0.2992572486400604,-0.0021177083253860474,-9.808738708496094
978589622000,0.00036459736293181777,0.00014754838775843382,0.0006539548048749566,-0.3000624179840088,-0.0001423656940460205,-9.808327674865723
978596619000,0.0001426451635779813,4.291361983632669e-05,0.00045435616630129516,-0.3010004758834839,0.004466846585273743,-9.808570861816406
978610507000,-0.000873636337928474,-7.056165486574173e-06,-4.077123594470322e-05,-0.2730786204338074,-0.036620669066905975,-9.813494682312012
978617389000,0.00032927055144682527,0.0003925561613868922,0.0004850821860600263,-0.293472021818161,-0.01551106572151184,-9.805546760559082
978624342000,0.00042415500502102077,0.0002992030349560082,0.0006257564527913928,-0.2986654043197632,-0.0029463917016983032,-9.808610916137695
978631330000,0.00035573873901739717,0.000128590821987018,0.0006540247704833746,-0.29980358481407166,-0.0002159327268600464,-9.80815315246582
978645315000,-0.0005737661849707365,-0.0009464845643378794,-0.002546707633882761,-0.32800930738449097,0.050234317779541016,-9.788538932800293
978652176000,-0.001116812927648425,-0.0024012145586311817,0.0034934671130031347,-0.2905628979206085,-0.09479288756847382,-9.783992767333984
978659056000,0.0009448758792132139,0.0011196862906217575,-0.002016973216086626,-0.29259470105171204,0.07726083695888519,-9.799771308898926
978666042000,-0.00070467364275828,0.0012231739237904549,0.00030544743640348315,-0.2793368697166443,-0.026195555925369263,-9.820293426513672
978672957000,0.00030863191932439804,0.001409234944730997,0.0005469460738822818,-0.2967787981033325,-0.009808197617530823,-9.81257438659668
978686864000,0.00036681751953437924,0.0005325415404513478,0.0006423946470022202,-0.3019639253616333,-0.00036704540252685547,-9.8119535446167
978693835000,0.0003434960963204503,0.00010236521484330297,0.0006442635203711689,-0.3018355965614319,-5.644559860229492e-05,-9.811506271362305
978700780000,-0.0005054165376350284,-0.0009784149006009102,-0.0025081660132855177,-0.33000701665878296,0.05352701246738434,-9.792243957519531
978707668000,-0.0006820770213380456,-0.00038840685738250613,0.00015706133854109794,-0.27447497844696045,-0.040028467774391174,-9.816200256347656
978714699000,0.00038237174157984555,0.00010093554737977684,0.0005318633047863841,-0.2943817377090454,-0.012153372168540955,-9.806962966918945
978728620000,0.00021044342429377139,-0.0001237125979969278,0.0004494780150707811,-0.3009197413921356,0.004226386547088623,-9.807971000671387
978735509000,-0.0005266995867714286,-0.001046427758410573,-0.0025531668215990067,-0.3279407322406769,0.05033724009990692,-9.787604331970215
978742399000,-0.0008792062290012836,5.778571357950568e-05,-3.778599784709513e-05,-0.27243366837501526,-0.036472029983997345,-9.811561584472656
978749377000,0.00032038387143984437,0.0005119427805766463,0.000578274775762111,-0.2931666076183319,-0.01700495183467865,-9.804708480834961
978763290000,0.0004362482577562332,0.00023776186571922153,0.0007020044722594321,-0.3005387783050537,0.003474906086921692,-9.809624671936035
978770184000,0.00014621828449890018,7.897692557889968e-05,0.0004639306862372905,-0.30176839232444763,0.005469843745231628,-9.808659553527832
978777208000,-0.0005513709038496017,-0.0009560166508890688,-0.0025533612351864576,-0.32862234115600586,0.050345778465270996,-9.788824081420898
978784158000,-0.0008873054757714272,-2.3637607228010893e-05,-4.0642837120685726e-05,-0.27339038252830505,-0.0365237221121788,-9.813587188720703
978798009000,0.00032438102061860263,0.00037534075090661645,0.00046719927922822535,-0.30035915970802307,0.004719719290733337,-9.809797286987305
978804902000,0.0003441943263169378,4.6033295802772045e-05,0.0006085677305236459,-0.30012765526771545,-0.002680554986000061,-9.807229042053223
978812074000,0.0003827369073405862,-9.866483742371202e-05,0.0006374127697199583,-0.2997175455093384,-0.0008413791656494141,-9.80808162689209
978818809000,-0.00024346564896404743,-0.0010708813788369298,-0.002315378747880459,-0.327755331993103,0.04889829456806183,-9.788782119750977
978825729000,-0.0007440577610395849,5.980487912893295e-06,8.188485480786767e-06,-0.27380862832069397,-0.032407209277153015,-9.81416130065918
978839634000,0.0006301661487668753,0.0001979605876840651,0.0008425760315731168,-0.2977064847946167,-0.006058216094970703,-9.808453559875488
978846633000,0.0004421693447511643,0.00011855509364977479,0.0006993415299803019,-0.30055227875709534,0.0033695250749588013,-9.80867862701416
978853529000,-0.0007225141162052751,-0.0007036463357508183,-0.002681300975382328,-0.32980236411094666,0.05915455520153046,-9.790166854858398
978860523000,-0.0008426166605204344,-0.00012387061724439263,0.0001330232626060024,-0.2731689512729645,-0.04288235306739807,-9.81221866607666
978867415000,0.00038403202779591084,0.0005000425735488534,0.0005230499082244933,-0.2932196259498596,-0.013304412364959717,-9.806866645812988
978881376000,0.00036363699473440647,0.00014766730600968003,0.0006532628904096782,-0.30009591579437256,-0.00021947920322418213,-9.8082914352417
978888288000,0.00015992886619642377,3.791369090322405e-05,0.00045336326002143323,-0.30103161931037903,0.004366040229797363,-9.808542251586914
978895308000,-0.00072035490302369,-0.0009303840924985707,-0.0026628379710018635,-0.32916557788848877,0.05306670069694519,-9.788650512695312
978902149000,-0.000942808692343533,-2.836110070347786e-05,-6.384440348483622e-05,-0.27234697341918945,-0.03863558918237686,-9.812776565551758
978916052000,0.0003036404959857464,0.00044131281902082264,0.00046983020729385316,-0.300372838973999,0.004467204213142395,-9.809410095214844
978922974000,0.0003459215222392231,9.907975618261844e-05,0.0006082963664084673,-0.30004870891571045,-0.0027591735124588013,-9.807109832763672
978930031000,-0.00043112324783578515,-0.0007935427711345255,-0.0025185400154441595,-0.3283941149711609,0.05271238088607788,-9.7897367477417
978936933000,-0.0009102011099457741,-0.0024317509960383177,0.0037018784787505865,-0.2904394567012787,-0.09820674359798431,-9.785573959350586
978943897000,0.0011562068248167634,0.0010623544221743941,-0.0017657654825598001,-0.2924991250038147,0.0765482485294342,-9.801573753356934
978957679000,0.0002316908212378621,0.0012950623640790582,0.0005144736496731639,-0.29725924134254456,-0.011816143989562988,-9.811576843261719
978964698000,0.00037476065335795283,0.0009011312504298985,0.0006194922607392073,-0.30099794268608093,-0.002656012773513794,-9.812079429626465
978971582000,0.00038947819848544896,0.0004327694186940789,0.0006362167187035084,-0.3020371198654175,-0.0005092471837997437,-9.811603546142578
978978647000,0.00033564161276444793,5.3962983656674623e-05,0.0006478096474893391,-0.3014557957649231,-3.714859485626221e-05,-9.811610221862793
978985478000,0.0003906169149558991,-0.00032736503635533154,0.0006357854581438005,-0.3016759157180786,-0.00027777254581451416,-9.809669494628906
978999365000,-0.0006774751236662269,-0.00038983585545793176,0.00016215219511650503,-0.27255281805992126,-0.03995860368013382,-9.812710762023926
979006289000,0.0003876565024256706,0.00024100863083731383,0.0005341885262168944,-0.2935420274734497,-0.012112334370613098,-9.804922103881836
979013278000,0.00040057231672108173,0.0001381481415592134,0.0006363270804286003,-0.29926154017448425,-0.0018648505210876465,-9.807923316955566
979020194000,0.00015483377501368523,6.968222442083061e-05,0.00045661392505280674,-0.3009200394153595,0.004277810454368591,-9.808279991149902
979034122000,-0.0008703527273610234,6.595480954274535e-05,-4.055666795466095e-05,-0.2731296420097351,-0.036625899374485016,-9.812128067016602
979041055000,0.00033965197508223355,0.0004864392103627324,0.0005750031559728086,-0.29338037967681885,-0.017057254910469055,-9.805319786071777
979048061000,0.000673501577693969,0.00028541748179122806,0.0008299451437778771,-0.29836854338645935,-0.006239861249923706,-9.808470726013184
979054908000,0.0005095809465274215,0.00017139196279458702,0.0006884323083795607,-0.3009032607078552,0.003203168511390686,-9.80913257598877
979068857000,-0.0005254581919871271,-0.0009859285783022642,-0.0025503772776573896,-0.3284945487976074,0.05039384961128235,-9.7889404296875
979075753000,-0.0008970748749561608,-5.3324911277741194e-05,-3.7984838854754344e-05,-0.27337050437927246,-0.036315739154815674,-9.813430786132812
979082766000,0.0005322812357917428,0.00030859134858474135,0.0006803631549701095,-0.2925388216972351,-0.02004232257604599,-9.805133819580078
979089690000,0.0003425887261983007,0.0003763015556614846,0.0004686196625698358,-0.3003724217414856,0.004640623927116394,-9.80975341796875
979103582000,-0.0004434764268808067,-0.0008325912058353424,-0.0025179521180689335,-0.32858455181121826,0.052700191736221313,-9.789610862731934
979110595000,-0.0006663082167506218,-2.5576679036021233e-05,0.00016403770132455975,-0.2728826105594635,-0.04003109037876129,-9.814254760742188
979117431000,0.0003680764348246157,0.0004430549161043018,0.0005385855911299586,-0.29424774646759033,-0.011972039937973022,-9.807400703430176
979124439000,0.00043030348024331033,0.00025360751897096634,0.000632775598205626,-0.2997053265571594,-0.002014175057411194,-9.80826187133789
979131425000,0.0003730794705916196,7.948320126160979e-05,0.0006519508897326887,-0.29998475313186646,-0.0001338571310043335,-9.808359146118164
979145312000,-0.0007998198852874339,-0.0008951259660534561,-0.002739505609497428,-0.3289448618888855,0.05468703806400299,-9.789054870605469
979152129000,-0.0007815651479177177,-0.00013320642756298184,0.00011382241791579872,-0.27184605598449707,-0.0442945659160614,-9.811264991760254
979159069000,0.000342698534950614,0.0005098625551909208,0.0005285316146910191,-0.2929571866989136,-0.013124853372573853,-9.806351661682129
979166058000,0.0003847024345304817,0.00035485843545757234,0.0006393013754859567,-0.29933345317840576,-0.002164989709854126,-9.808385848999023
979172985000,0.0003371972416061908,0.00016416754806414247,0.0006548124947585166,-0.3000704050064087,-0.0001312345266342163,-9.808130264282227
979186920000,-0.0005591828958131373,-0.0009516645222902298,-0.0025520885828882456,-0.32818809151649475,0.05027766525745392,-9.788656234741211
979193863000,-0.0008760797209106386,-2.082571154460311e-05,-4.1009214328369126e-05,-0.2732337713241577,-0.03660430759191513,-9.813212394714355
979200765000,0.0003284880658611655,0.0004130597517360002,0.0004852026468142867,-0.29328104853630066,-0.015525653958320618,-9.805712699890137
979207690000,0.0004311340453568846,0.0003076563007198274,0.0006231201114133,-0.29884564876556396,-0.0028626471757888794,-9.808572769165039
979221587000,0.00044794834684580564,-3.9334845496341586e-05,0.0006915275589562953,-0.300523579120636,0.003117799758911133,-9.808513641357422
979228618000,-0.0006414125673472881,-0.0008708676905371249,-0.0026953299529850483,-0.32975608110427856,0.05882333219051361,-9.78968334197998
979235525000,-0.0010518399067223072,-0.002577669220045209,0.0036648011300712824,-0.2897171974182129,-0.10098980367183685,-9.783143043518066
979242414000,0.0012208533007651567,0.0010421820916235447,-0.001788597321137786,-0.29168224334716797,0.07513363659381866,-9.79963493347168
979249404000,-0.0007228978211060166,0.0014043082483112812,0.000149130035424605,-0.2804895043373108,-0.017954230308532715,-9.822467803955078
979263316000,0.00035394361475482583,0.0009513130644336343,0.0006226390250958502,-0.30089280009269714,-0.002621188759803772,-9.812202453613281
979270235000,0.00033915176754817367,0.0004949793219566345,0.0006434860988520086,-0.30187809467315674,-0.0004089176654815674,-9.811966896057129
979277187000,0.00038231839425861835,3.717371146194637e-05,0.000635394302662462,-0.30206742882728577,-0.0002759099006652832,-9.81093692779541
979284117000,-0.0002874693600460887,-0.0011017756769433618,-0.002314240438863635,-0.32893550395965576,0.04909084737300873,-9.791807174682617
979298041000,0.0004913848824799061,-4.505462129600346e-05,0.0006972181145101786,-0.2937273681163788,-0.01857714354991913,-9.805910110473633
979304947000,0.00030598760349676013,3.779420512728393e-05,0.0004697528784163296,-0.30049946904182434,0.0048662275075912476,-9.808992385864258
979311969000,0.0002690294641070068,-0.00021869890042580664,0.0006170456763356924,-0.29974931478500366,-0.0024527758359909058,-9.807001113891602
979318842000,-0.000512063386850059,-0.000984611688181758,-0.002509432379156351,-0.3278902471065521,0.05272398889064789,-9.78817081451416
979332786000,0.000394067435991019,0.0005641838070005178,0.000534955644980073,-0.2933470606803894,-0.012129932641983032,-9.805825233459473
979339640000,0.00044127125875093043,0.0003856386465486139,0.0006325743161141872,-0.2996993064880371,-0.001984342932701111,-9.808547019958496
979346654000,0.0003957911394536495,0.00017516015213914216,0.000647342880256474,-0.30034196376800537,-0.00013214349746704102,-9.808435440063477
979353593000,0.00020414398750290275,4.3773630750365555e-05,0.000449337501777336,-0.30131345987319946,0.004265293478965759,-9.808661460876465
979360659000,-0.0005397392669692636,-0.0009651315049268305,-0.0025536746252328157,-0.32830148935317993,0.05028599500656128,-9.789073944091797
979374465000,0.00027410101029090583,0.0004685334279201925,0.0004950375878252089,-0.2928099036216736,-0.015332236886024475,-9.806429862976074
979381504000,0.00039876322261989117,0.00032099831150844693,0.0006272355676628649,-0.2992818355560303,-0.002896934747695923,-9.808562278747559
979388366000,0.0005211213720031083,4.783654003404081e-05,0.0008508997270837426,-0.29921767115592957,-0.00460207462310791,-9.807899475097656
979395366000,0.00044043187517672777,-5.495196091942489e-05,0.0006924131885170937,-0.3007833957672119,0.0029995590448379517,-9.80850601196289
979409187000,-0.0007894794107414782,-0.00017153978114947677,0.0001257210096810013,-0.27232441306114197,-0.04294697195291519,-9.811946868896484
979416188000,0.00041373667772859335,0.000427636579843238,0.0005177078419364989,-0.29342275857925415,-0.0132121741771698,-9.80582332611084
979423054000,0.00040489883394911885,0.0003087347140535712,0.0006349490722641349,-0.2990802228450775,-0.0019818097352981567,-9.808745384216309
979430158000,0.00035451678559184074,0.0001309766375925392,0.0006545117357745767,-0.2999676764011383,-0.00018189847469329834,-9.808187484741211
979437089000,-0.0006850551581010222,-0.0006974925636313856,-0.0026822867803275585,-0.32954975962638855,0.0577436238527298,-9.790181159973145
979450948000,0.00039733719313517213,0.00048711267299950123,0.0005223587504588068,-0.2933608293533325,-0.013281166553497314,-9.806968688964844
979457810000,0.0004096949996892363,0.0003377011453267187,0.0006351217161864042,-0.29926395416259766,-0.0020268112421035767,-9.808862686157227
979464805000,0.00017638826102484018,0.00022352748783305287,0.00045714215957559645,-0.30098962783813477,0.004182711243629456,-9.808774948120117
979471730000,0.0002487132733222097,-6.737034709658474e-05,0.0006109258392825723,-0.2995802164077759,-0.0031870603561401367,-9.807547569274902
979478841000,-0.0004604986752383411,-0.0009661712683737278,-0.002521093236282468,-0.3284851908683777,0.0524069219827652,-9.789134979248047
979492545000,0.0012335663195699453,0.0009924741461873055,-0.001777256024070084,-0.29257863759994507,0.07624970376491547,-9.799908638000488
979499523000,-0.0007664624135941267,0.0013111907755956054,0.00015739293303340673,-0.28085246682167053,-0.017588168382644653,-9.821904182434082
979506434000,2.3471075110137463e-05,0.0013946995604783297,0.0003210511931683868,-0.29794952273368835,-0.007281392812728882,-9.81197738647461
979513454000,0.0004761262098327279,0.0008229170925915241,0.0007721656002104282,-0.299633651971817,-0.01028837263584137,-9.810856819152832
979527316000,0.00020053517073392868,0.00012763732229359448,0.00044933357276022434,-0.3032076060771942,0.0049677640199661255,-9.811299324035645
979534276000,-0.0005976444226689637,-0.0010107546113431454,-0.002548103453591466,-0.3292838931083679,0.05059559643268585,-9.79167366027832
979541155000,-0.0008675616118125618,-0.0002642591134645045,-4.866094604949467e-05,-0.27478015422821045,-0.036688923835754395,-9.816071510314941
979548203000,0.00030313522438518703,0.00012367384624667466,0.00048763942322693765,-0.29387491941452026,-0.01550014317035675,-9.80618953704834
979562140000,0.00039588764775544405,-0.00011767417890951037,0.0006677968194708228,-0.2994164824485779,0.0009345561265945435,-9.808536529541016
979568986000,0.00014919351087883115,-0.00016110832802951336,0.0004601679102052003,-0.3009578585624695,0.0047304630279541016,-9.807679176330566
979575854000,-0.0005734217120334506,-0.0010601583635434508,-0.002548624062910676,-0.3278512954711914,0.05034932494163513,-9.787148475646973
979582892000,-0.0006666400586254895,-2.3322005290538073e-05,0.00015276209160219878,-0.27154839038848877,-0.04108487069606781,-9.8107328414917
979596771000,0.0002979906275868416,0.00038957863580435514,0.0005937587702646852,-0.2991633415222168,-0.005140721797943115,-9.80778694152832
979603736000,0.0003876321716234088,0.00018445553723722696,0.000635368749499321,-0.3002054691314697,-0.0013377517461776733,-9.808029174804688
979610619000,-0.00044307654025033116,-0.0007537371129728854,-0.0025113357696682215,-0.329066663980484,0.05333338677883148,-9.78984546661377
979617653000,-0.0006756101502105594,-3.255851333960891e-05,0.00016623556439299136,-0.2735176086425781,-0.03990946710109711,-9.814610481262207
979624481000,0.0003662976378109306,0.00044156669173389673,0.0005361145595088601,-0.2943628430366516,-0.011939898133277893,-9.80787181854248
979638349000,0.0004095923504792154,4.5048713218420744e-05,0.0006442830199375749,-0.3006119728088379,-0.0004451572895050049,-9.807775497436523
979645448000,0.00016003972268663347,-3.206112887710333e-05,0.00045363057870417833,-0.3009514808654785,0.004477337002754211,-9.808675765991211
979652415000,-0.0005933792563155293,-0.001006696023978293,-0.002545242663472891,-0.3281342685222626,0.05036744475364685,-9.78872013092041
979659257000,-0.0008659222512505949,-1.4211167581379414e-05,-4.268564225640148e-05,-0.2731027901172638,-0.03672163933515549,-9.812712669372559
979673804000,0.00038867141120135784,0.0002707016246858984,0.0006680327351205051,-0.2991052269935608,-0.00346432626247406,-9.808487892150879
979680838000,0.00038090100861154497,0.0001356370048597455,0.0006606568931601942,-0.29975682497024536,2.2813677787780762e-05,-9.808382034301758
979687522000,0.00014347632532007992,3.421284782234579e-05,0.0004581499670166522,-0.3011118173599243,0.004596978425979614,-9.808324813842773
979694581000,-0.000588943250477314,-0.0009538258309476078,-0.0025448736269026995,-0.32817864418029785,0.05031418800354004,-9.788579940795898
979708264000,0.0005262003396637738,0.00031890085665509105,0.000680724042467773,-0.2927256226539612,-0.01994296908378601,-9.805027961730957
979715364000,0.000327474030200392,0.0004076478071510792,0.0004705660103354603,-0.3001633882522583,0.004666775465011597,-9.809657096862793
979722215000,0.0003448546922300011,7.17233051545918e-05,0.0006078867590986192,-0.3001053035259247,-0.002599075436592102,-9.807031631469727
979729412000,-0.0004393276758491993,-0.0008033835911192,-0.0025181020610034466,-0.3283058702945709,0.052645087242126465,-9.789745330810547
979743304000,0.00036789674777537584,0.000449730665422976,0.0005368289421312511,-0.2941911220550537,-0.011963918805122375,-9.807506561279297
979750124000,0.00038322529871948063,0.00029686238849535584,0.0006424428429454565,-0.29933327436447144,-0.0019320100545883179,-9.808618545532227
979757048000,0.0003927383222617209,7.651076884940267e-05,0.000646169763058424,-0.30030643939971924,-0.00026570260524749756,-9.807785034179688
979764026000,0.00018810863548424095,-9.401279385201633e-06,0.0004513010790105909,-0.30084341764450073,0.004288971424102783,-9.808449745178223
979770853000,-0.0007295259856618941,-0.0009486861526966095,-0.0026580779813230038,-0.32893580198287964,0.053169429302215576,-9.788655281066895
979784735000,0.00026783900102600455,0.0004586346913129091,0.0005777294863946736,-0.2926366925239563,-0.017488092184066772,-9.80542278289795
979791699000,0.00064893439412117,0.0002839735825546086,0.0008362663211300969,-0.2979363799095154,-0.006563469767570496,-9.808091163635254
979798809000,0.00048262905329465866,0.0001796036958694458,0.0006933158147148788,-0.3006315529346466,0.003242313861846924,-9.808684349060059
979805548000,-0.0006573070422746241,-0.0006695244810543954,-0.002691803965717554,-0.3299044966697693,0.05908723175525665,-9.790270805358887
979819463000,0.0012496884446591139,0.0010228717001155019,-0.0017924165586009622,-0.2924090623855591,0.07505154609680176,-9.800585746765137
979826399000,-0.0007284976891241968,0.0013844630448147655,0.00015126091602724046,-0.28050804138183594,-0.01784873753786087,-9.82284164428711
979833366000,0.0002203923650085926,0.0013193173799663782,0.0005173190147615969,-0.29743528366088867,-0.011601373553276062,-9.81160831451416
979840332000,0.0003712851903401315,0.0009110246319323778,0.0006194545421749353,-0.3011091947555542,-0.0026547610759735107,-9.812074661254883
979847343000,0.00041352497646585107,0.0004273556696716696,0.0006335945799946785,-0.30213579535484314,-0.0006223469972610474,-9.81157398223877
979861120000,0.0004798399459104985,-0.00036189352977089584,0.0008472291519865394,-0.3003048896789551,-0.00439414381980896,-9.809957504272461
979868018000,-0.00037725293077528477,-0.001271799672394991,-0.0024730267468839884,-0.33019015192985535,0.05641733109951019,-9.79080581665039
979874974000,-0.000675446935929358,-0.00046404291060753167,0.00017467024736106396,-0.27332252264022827,-0.039058953523635864,-9.812334060668945
979881951000,0.00038971062167547643,0.0002253929415019229,0.0005331378779374063,-0.29328811168670654,-0.011890709400177002,-9.804825782775879
979895889000,0.0001639211259316653,6.903020403115079e-05,0.0004546705458778888,-0.3009181618690491,0.004279926419258118,-9.808260917663574
979902714000,-0.0005607984494417906,-0.0009183503570966423,-0.0025504850782454014,-0.32833385467529297,0.050306111574172974,-9.78840160369873
979909627000,-0.0008662106702104211,6.3571787904948e-05,-4.091042501386255e-05,-0.2731878459453583,-0.03664956986904144,-9.81201171875
979916716000,0.000501115049701184,0.00045973696978762746,0.0006861942238174379,-0.2923351228237152,-0.019829921424388885,-9.805462837219238
979930543000,0.0002589218784123659,0.000170394399901852,0.000619598024059087,-0.30030062794685364,-0.0025349557399749756,-9.807788848876953
979937426000,0.0003522017796058208,-3.650988219305873e-05,0.0006379337282851338,-0.3002438545227051,-0.0009849071502685547,-9.808157920837402
979944409000,-0.00024092290550470352,-0.0010538933565840125,-0.0023196195252239704,-0.3281436562538147,0.0487859845161438,-9.788962364196777
979951357000,-0.0007441440830007195,-2.942472929134965e-05,6.764041245332919e-06,-0.2742009162902832,-0.032438717782497406,-9.814497947692871
979958242000,0.00031254501664079726,0.00034755078377202153,0.000499851768836379,-0.2939668297767639,-0.014161303639411926,-9.806053161621094
979972146000,0.0006065997877158225,-4.833098500967026e-05,0.0008402005769312382,-0.2994386553764343,-0.004986569285392761,-9.80713939666748
979979144000,0.00045233932905830443,-9.833896183408797e-05,0.0006934073171578348,-0.3004026412963867,0.0032309889793395996,-9.808629989624023
979986041000,-0.0006806369638070464,-0.000901225081179291,-0.002690907334908843,-0.3297315239906311,0.059031546115875244,-9.78964900970459
979999956000,0.0003490258823148906,0.0005390136502683163,0.0005284326616674662,-0.2924482822418213,-0.013248264789581299,-9.806109428405762
980006873000,0.0004054941236972809,0.0003765653818845749,0.000634193595033139,-0.29941684007644653,-0.002169087529182434,-9.808390617370605
980013895000,0.0003876959381159395,0.00017175989341922104,0.0006485903286375105,-0.30018261075019836,-0.0002837628126144409,-9.80809497833252
980020769000,-0.0006306934519670904,-0.0006833463557995856,-0.0027055596001446247,-0.3298429250717163,0.057895392179489136,-9.790108680725098
980027742000,-0.0008054959471337497,-8.088105823844671e-05,0.00012814768706448376,-0.27289053797721863,-0.04287722706794739,-9.81373405456543
980041624000,0.0004001157358288765,0.00031641896930523217,0.0006366493180394173,-0.2993573546409607,-0.002148270606994629,-9.808756828308105
980048619000,0.00014634466788265854,0.0002055750519502908,0.00045971525833010674,-0.3009822964668274,0.004282951354980469,-9.808783531188965
980055516000,0.00020985107403248549,-7.817424193490297e-05,0.0006136762094683945,-0.29951736330986023,-0.0031385719776153564,-9.807498931884766
980062507000,-0.0004805991193279624,-0.0009653443703427911,-0.002518416615203023,-0.3283543586730957,0.05211988091468811,-9.789113998413086
980069393000,-0.0009030112996697426,-0.002494219457730651,0.0036876890808343887,-0.28986603021621704,-0.09829406440258026,-9.78402042388916
980083318000,-0.0007692893850617111,0.0013058844488114119,0.00015691580483689904,-0.2809242010116577,-0.017604410648345947,-9.821722984313965
980090228000,0.00024024676531553268,0.0013085377868264914,0.0005138706183061004,-0.2971007823944092,-0.011795207858085632,-9.811468124389648
980097260000,0.00036135566188022494,0.0009367719758301973,0.0006214824970811605,-0.30085915327072144,-0.002573549747467041,-9.81212329864502
980104180000,0.0003270581364631653,0.0005046296864748001,0.0006466221529990435,-0.3017656207084656,-0.00036506354808807373,-9.81200885772705
980118066000,-0.00027705251704901457,-0.0010954528115689754,-0.0023154609370976686,-0.32908815145492554,0.04900595545768738,-9.79161262512207
980124959000,-0.0007381925825029612,-0.0002592027303762734,2.058849077002378e-06,-0.2755712866783142,-0.03253693878650665,-9.817392349243164
980132067000,0.00028361560543999076,6.728059088345617e-05,0.0005028643063269556,-0.2944267988204956,-0.01407650113105774,-9.806565284729004
980138851000,0.0004096564371138811,-5.13447739649564e-05,0.0006235468899831176,-0.2994714379310608,-0.0027332603931427,-9.807819366455078
980145858000,0.0005962753784842789,-0.0002851407043635845,0.0008416708442382514,-0.2991769015789032,-0.004879102110862732,-9.806909561157227
980159676000,-0.0006753450725227594,-0.0009815143421292305,-0.002690850291401148,-0.32940587401390076,0.0589568167924881,-9.788336753845215
980166660000,-0.000846855400595814,-0.00014504289720207453,0.0001338199363090098,-0.2717815339565277,-0.042755864560604095,-9.80920696258545
980173566000,0.000370566442143172,0.0006156158051453531,0.0005246480577625334,-0.29262182116508484,-0.013270586729049683,-9.805062294006348
980180644000,0.00045794935431331396,0.00042582230526022613,0.0006256867782212794,-0.29976552724838257,-0.0022703856229782104,-9.80826187133789
980187453000,0.00035845712409354746,0.000258653744822368,0.0006535578286275268,-0.3000151216983795,-3.7804245948791504e-05,-9.808927536010742
980201394000,-0.000826373987365514,-7.96422827988863e-05,0.00012957629223819822,-0.2733558416366577,-0.042841143906116486,-9.81400203704834
980208293000,0.0003802744031418115,0.0004779894952662289,0.0005244659259915352,-0.29375845193862915,-0.013272956013679504,-9.80774211883545
980215291000,0.00038203876465559006,0.0003075926215387881,0.0006374124204739928,-0.29957032203674316,-0.001971408724784851,-9.809014320373535
980222192000,0.00014853639004286379,0.00018870861094910651,0.00045744547969661653,-0.30120009183883667,0.004214689135551453,-9.808863639831543
980229233000,0.00029632262885570526,-0.00014692137483507395,0.0005992399528622627,-0.30012404918670654,-0.0034294575452804565,-9.80696964263916
980243055000,-0.0006593759753741324,-0.000123627542052418,0.0001655062078498304,-0.2723912000656128,-0.040178366005420685,-9.81286334991455
980249984000,0.0004135561175644398,0.0004018871986772865,0.0005311124841682613,-0.2940405309200287,-0.012049421668052673,-9.80599308013916
980256894000,0.00040580492350272834,0.00029150856425985694,0.000638353347312659,-0.2991412878036499,-0.0018252581357955933,-9.808690071105957
980264000000,0.0001461715582991019,0.00020718510495498776,0.0004603306879289448,-0.3008972108364105,0.004331648349761963,-9.808626174926758
980270803000,0.000288776500383392,-0.0001116981147788465,0.0005998056149110198,-0.2999470829963684,-0.0033600181341171265,-9.80672836303711
980284715000,-0.0006904183537699282,-0.00011243351036682725,0.0001676378888078034,-0.27240997552871704,-0.039936475455760956,-9.812850952148438
980291629000,0.0003512677794788033,0.00048554883687756956,0.0005415021441876888,-0.293443500995636,-0.012001827359199524,-9.80673599243164
980298607000,0.00036882259882986546,0.00033262145007029176,0.0006417702534236014,-0.29939258098602295,-0.0018601864576339722,-9.80837345123291
980305524000,0.00014949904289096594,0.00023067065922077745,0.00045791908632963896,-0.30095916986465454,0.004195079207420349,-9.808497428894043
980312538000,-0.0005995845422148705,-0.000781387323513627,-0.002543532056733966,-0.3282761573791504,0.05038708448410034,-9.789054870605469
980326349000,0.0003493234980851412,0.0004501999355852604,0.0005384368123486638,-0.29421818256378174,-0.012010961771011353,-9.807716369628906
980333419000,0.00044882664224132895,0.0002479510731063783,0.0006297572981566191,-0.2997453212738037,-0.002180919051170349,-9.807994842529297
980340255000,0.00018203315266873688,0.00017751466657500714,0.0004585826536640525,-0.30067306756973267,0.0042633116245269775,-9.808923721313477
980347249000,0.0002305516682099551,-8.823949610814452e-05,0.0006151922279968858,-0.29939931631088257,-0.0030958354473114014,-9.807499885559082
980361097000,-0.0008810285944491625,-0.002484790747985244,0.0036962672602385283,-0.2898074984550476,-0.09860701858997345,-9.783942222595215
980368060000,0.0010188415180891752,0.001092590857297182,-0.001969264354556799,-0.29342272877693176,0.08082647621631622,-9.800338745117188
980374956000,-0.0007054273155517876,0.0011924807913601398,0.00031466493965126574,-0.2796238660812378,-0.02505035698413849,-9.820313453674316
980381975000,0.0003418014384806156,0.0013371871318668127,0.0005459209787659347,-0.2972255349159241,-0.0098467618227005,-9.812005043029785
980388848000,0.00038172269705682993,0.0009493556572124362,0.000628521665930748,-0.3011249601840973,-0.0017090439796447754,-9.81210994720459
980402752000,0.00041447480907663703,0.00010674729128368199,0.0006899575819261372,-0.3023199439048767,0.003122374415397644,-9.81197452545166
980409701000,0.00011929958418477327,-0.00017178912821691483,0.0004612804332282394,-0.30256378650665283,0.005343958735466003,-9.810810089111328
980416727000,-0.0005973831284791231,-0.0012659266358241439,-0.0025503949727863073,-0.3290759325027466,0.050359174609184265,-9.789977073669434
980423596000,-0.0008516450179740787,-0.00028500170446932316,-4.770616942550987e-05,-0.2733539938926697,-0.036832816898822784,-9.813065528869629
980430613000,0.0004911127034574747,0.00013197361840866506,0.0006867480697110295,-0.29229071736335754,-0.019813790917396545,-9.804044723510742
980444394000,0.0002632110845297575,-3.124307841062546e-05,0.0006183303776197135,-0.29981178045272827,-0.0024005770683288574,-9.807334899902344
980451453000,-0.00046098855091258883,-0.0009199240594170988,-0.002518960041925311,-0.3287476897239685,0.05257250368595123,-9.788833618164062
980458288000,-0.0006686242995783687,-2.6002933736890554e-05,0.00016561560914851725,-0.27251434326171875,-0.0401640310883522,-9.812127113342285
980465310000,0.0003867336199618876,0.0005211485549807549,0.0005339891649782658,-0.29398804903030396,-0.011994421482086182,-9.806398391723633
980479221000,0.00036284374073147774,0.00015124735364224762,0.0006517126457765698,-0.3002849221229553,-5.587935447692871e-05,-9.808576583862305
980486085000,0.000158395036123693,3.05834983009845e-05,0.0004521697701420635,-0.3013051152229309,0.00436045229434967,-9.808658599853516
980493058000,-0.0007448270334862173,-0.0008921342086978257,-0.0027483906596899033,-0.32925641536712646,0.054617106914520264,-9.789294242858887
980500039000,-0.000814113998785615,-0.00015462643932551146,0.00011758712935261428,-0.2720470428466797,-0.04400556534528732,-9.811734199523926
980513899000,0.00038852705620229244,0.00034187082201242447,0.0006365558365359902,-0.299497127532959,-0.0020775943994522095,-9.808613777160645
980520803000,0.000341251608915627,0.0001442056818632409,0.000651604204904288,-0.30024755001068115,-0.00012899935245513916,-9.808233261108398
980527748000,-0.000668691995088011,-0.0007014243165031075,-0.0027020974084734917,-0.3298932909965515,0.05783917009830475,-9.790114402770996
980534733000,-0.0008248412050306797,-0.00010759528959169984,0.0001295360125368461,-0.2730914354324341,-0.042955897748470306,-9.81297779083252
980541627000,0.0004060313804075122,0.0004732899251393974,0.0005213022814132273,-0.293597936630249,-0.013361424207687378,-9.806968688964844
980555557000,0.00014054495841264725,0.00021868648764211684,0.0004609508323483169,-0.3010086417198181,0.004376649856567383,-9.808960914611816
980562592000,0.00022731698118150234,-7.47089070500806e-05,0.0006121721817180514,-0.29972952604293823,-0.0032311677932739258,-9.807461738586426
980569428000,-0.00046476448187604547,-0.0009748779120855033,-0.0025207921862602234,-0.32862046360969543,0.052321940660476685,-9.789043426513672
980576411000,-0.0006733490154147148,-0.00011796987382695079,0.00016497517935931683,-0.27257660031318665,-0.04017656296491623,-9.812935829162598
980583337000,0.0004178576054982841,0.00039753742748871446,0.0005298072937875986,-0.2940557897090912,-0.01214088499546051,-9.806051254272461
980597273000,0.00013378840230870992,0.00020825314277317375,0.0004601052205543965,-0.3008657395839691,0.004369571805000305,-9.80859375
980604162000,0.00029735983116552234,-0.00011056239600293338,0.000599552586209029,-0.29989081621170044,-0.003479689359664917,-9.806680679321289
980611097000,-0.00042207707883790135,-0.0009751598699949682,-0.0025234059430658817,-0.3282603621482849,0.052317872643470764,-9.789077758789062
980618056000,-0.0006861580186523497,-0.00011445803102105856,0.00016740435967221856,-0.27242571115493774,-0.039940692484378815,-9.812804222106934
980632008000,0.0003785721492022276,0.0003351285704411566,0.000641999882645905,-0.2992933392524719,-0.001932099461555481,-9.808398246765137
980638871000,0.00015429622726514935,0.00022965924290474504,0.0004588393203448504,-0.30094480514526367,0.004212215542793274,-9.808472633361816
980645876000,-0.0006068510701879859,-0.0007759653381071985,-0.002541982801631093,-0.32817786931991577,0.05044823884963989,-9.789115905761719
980652782000,-0.0008971462957561016,-0.0023944959975779057,0.003685524221509695,-0.2903229594230652,-0.09939469397068024,-9.785028457641602
980659694000,0.0010471711866557598,0.0010901569621637464,-0.0019775123801082373,-0.2939766049385071,0.08053275942802429,-9.80128288269043
980673600000,0.0003474429249763489,0.0013163276016712189,0.0005426041898317635,-0.2973352074623108,-0.009810402989387512,-9.812172889709473
980680588000,0.0003866874612867832,0.0009296878706663847,0.000629176152870059,-0.3011218309402466,-0.0017702579498291016,-9.8123197555542
980687480000,0.0003653859894257039,0.00043520578765310347,0.0007311324588954449,-0.3020401895046234,-0.0017402470111846924,-9.81148910522461
980694418000,0.0003471753152552992,9.128180681727827e-05,0.0006648921989835799,-0.3014402687549591,0.0010709762573242188,-9.811872482299805
980701430000,8.703738421900198e-05,-0.0001646498858463019,0.00045812828466296196,-0.30230969190597534,0.004792556166648865,-9.810833930969238
980715304000,-0.0008525687735527754,-0.00027367722941562533,-4.80242379126139e-05,-0.2732863426208496,-0.036812663078308105,-9.812963485717773
980722219000,0.0005026587750762701,0.00014181292499415576,0.0006858257111161947,-0.29233020544052124,-0.019876644015312195,-9.803955078125
980729216000,0.00031093781581148505,0.0002490967162884772,0.00046945890062488616,-0.3003475069999695,0.004723966121673584,-9.808880805969238
980736106000,0.0002696455630939454,-2.8558133635669947e-05,0.0006160329794511199,-0.2999383211135864,-0.0024184733629226685,-9.807260513305664
980743039000,-0.00045434903586283326,-0.0009180742781609297,-0.0025220555253326893,-0.32877427339553833,0.05258640646934509,-9.788869857788086
980750023000,-0.0006697868229821324,-3.4527271054685116e-05,0.00016501786012668163,-0.2725951671600342,-0.040163084864616394,-9.812139511108398
980763955000,0.00040094085852615535,0.00036202208139002323,0.000635600823443383,-0.2996788024902344,-0.0018240362405776978,-9.80882740020752
980770821000,0.00038635946111753583,0.00014261447358876467,0.0006480533047579229,-0.3004820644855499,-0.0002721846103668213,-9.80833911895752
980777772000,0.00015401012205984443,3.0581832106690854e-05,0.0004527913988567889,-0.30125683546066284,0.004451364278793335,-9.808794975280762
980784759000,-0.0007383192423731089,-0.0009000594145618379,-0.0027504023164510727,-0.3293548822402954,0.05459567904472351,-9.789200782775879
980798697000,0.00036546363844536245,0.0004921728395856917,0.0005244431085884571,-0.29319319128990173,-0.013294324278831482,-9.806340217590332
980805546000,0.00040131385321728885,0.0003359155380167067,0.0006356651429086924,-0.2994832396507263,-0.002141222357749939,-9.808631896972656
980812595000,0.0003483812906779349,0.00014623509196098894,0.0006538790185004473,-0.30020037293434143,-0.0001462996006011963,-9.80833911895752
980819487000,-0.0006761900149285793,-0.0007068515405990183,-0.002702354919165373,-0.3300027847290039,0.0579632967710495,-9.790050506591797
980826369000,-0.0008174012182280421,-0.00010550703154876828,0.0001293302047997713,-0.2730790376663208,-0.043044187128543854,-9.812963485717773
980840289000,0.00039976692642085254,0.0003232159069739282,0.0006355585646815598,-0.2994338870048523,-0.0020223110914230347,-9.808883666992188
980847256000,0.0001530590670881793,0.00021529404330067337,0.0004574025224428624,-0.3010908365249634,0.004261285066604614,-9.808847427368164
980854159000,0.00022577335766982287,-7.494787860196084e-05,0.0006122055929154158,-0.29973095655441284,-0.0032096952199935913,-9.80750560760498
980861127000,-0.0004774128319695592,-0.0009670148720033467,-0.0025192962493747473,-0.32859304547309875,0.05236269533634186,-9.78912353515625
980868118000,-0.000675218878313899,-0.00013001082697883248,0.00016411952674388885,-0.2727407217025757,-0.04020131379365921,-9.81271743774414
980882072000,0.0004079343634657562,0.0002936550881713629,0.0006377206300385296,-0.2991434633731842,-0.0018098503351211548,-9.80868148803711
980888884000,0.00011930387699976563,0.00021891668438911438,0.0004622274427674711,-0.30080467462539673,0.004456996917724609,-9.808746337890625
980895817000,0.0002933712676167488,-0.00010752407251857221,0.0005988943157717586,-0.29999175667762756,-0.003494441509246826,-9.806618690490723
980902829000,-0.0004149121814407408,-0.0009789123432710767,-0.00252533215098083,-0.3283276855945587,0.052277833223342896,-9.78902530670166
980916720000,0.00037401929148472846,0.00047745092888362706,0.0005367069388739765,-0.2934480905532837,-0.012055546045303345,-9.80663013458252
980923606000,0.0003868339699693024,0.00033471465576440096,0.0006404425366781652,-0.29928159713745117,-0.0018880963325500488,-9.80847454071045
980930647000,0.00015248547424562275,0.0002360362559556961,0.0004579250526148826,-0.3009134829044342,0.004259943962097168,-9.808565139770508
980937503000,-0.0005856151110492647,-0.0007829908863641322,-0.0025457669980823994,-0.32831722497940063,0.05036255717277527,-9.788995742797852
980944438000,-0.0008920987602323294,-0.0023918712977319956,0.003685459028929472,-0.2902623414993286,-0.09935826808214188,-9.78522777557373
980958313000,-0.000710361753590405,0.0011794258607551455,0.0003168644616380334,-0.27969130873680115,-0.02504069358110428,-9.820703506469727
980965365000,0.0003454271936789155,0.0013112009037286043,0.0005439636297523975,-0.2973758578300476,-0.009824216365814209,-9.812156677246094
980972265000,0.00039629306411370635,0.000920393387787044,0.0006275623454712331,-0.30118831992149353,-0.001787722110748291,-9.812240600585938
980979214000,0.0003571432607714087,0.000442295364337042,0.0007342642638832331,-0.30192285776138306,-0.001713082194328308,-9.811657905578613
980986125000,0.0003286263672634959,9.365823643747717e-05,0.0006659682258032262,-0.30152440071105957,0.001163199543952942,-9.811823844909668
981000106000,-0.0005486932350322604,-0.0012823581928387284,-0.002556171268224716,-0.3288702964782715,0.050255417823791504,-9.79011344909668
981007016000,-0.0008731733541935682,-0.0002845926210284233,-4.491838626563549e-05,-0.27323806285858154,-0.03656982630491257,-9.813045501708984
981013985000,0.0005031853797845542,0.00014336267486214638,0.0006836376851424575,-0.2923140525817871,-0.019909612834453583,-9.803812980651855
981020838000,0.00034176799817942083,0.00024374462373089045,0.00046435982221737504,-0.30042922496795654,0.004597261548042297,-9.808738708496094
981034785000,-0.0004449628759175539,-0.0009160438203252852,-0.0025225766003131866,-0.3288436532020569,0.05264176428318024,-9.788888931274414
981041699000,-0.0006826405879110098,-3.8823578506708145e-05,0.0001658344262978062,-0.27265235781669617,-0.0400271862745285,-9.812235832214355
981048665000,0.000402191246394068,0.0005162670277059078,0.0005293879075907171,-0.2940211892127991,-0.012083649635314941,-9.806377410888672
981055569000,0.0004397954617161304,0.0003501760365907103,0.0006315091741271317,-0.2996804416179657,-0.0020056813955307007,-9.808809280395508
981069455000,0.00018312441534362733,2.27854325203225e-05,0.00044982307008467615,-0.30139926075935364,0.004295051097869873,-9.808632850646973
981076379000,-0.0007481155917048454,-0.0008925525471568108,-0.002747767372056842,-0.3292376399040222,0.05473098158836365,-9.789446830749512
981083384000,-0.0008188721258193254,-0.00015862169675529003,0.00011621754674706608,-0.27211660146713257,-0.043963395059108734,-9.811738967895508
981090299000,0.0003460633452050388,0.0005094506777822971,0.0005271516274660826,-0.29301902651786804,-0.013296827673912048,-9.806497573852539
981097302000,0.00037129101110622287,0.0003467514761723578,0.0006379092810675502,-0.2995483875274658,-0.0020716339349746704,-9.808619499206543
981111143000,-0.000671537360176444,-0.0007029157713986933,-0.002701512072235346,-0.32992443442344666,0.05791611969470978,-9.790159225463867
981118132000,-0.000833482772577554,-0.00011463253758847713,0.00012996591976843774,-0.2731781303882599,-0.042921654880046844,-9.812870979309082
981125031000,0.00039491456118412316,0.00047572990297339857,0.0005203147884458303,-0.2935989201068878,-0.013322815299034119,-9.806916236877441
981132048000,0.0004265664902050048,0.0003213784657418728,0.0006325207650661469,-0.29946377873420715,-0.0021298974752426147,-9.808850288391113
981145884000,0.00025347518385387957,-7.934746099635959e-05,0.0006092674448154867,-0.2998226284980774,-0.0033371150493621826,-9.807414054870605
981152815000,-0.0004777240683324635,-0.0009634980233386159,-0.002518449444323778,-0.32853299379348755,0.052462995052337646,-9.789290428161621
981159723000,-0.0006717282230965793,-0.00011081667616963387,0.00016355738625861704,-0.2726713716983795,-0.04019923508167267,-9.813008308410645
981166735000,0.0004268191696610302,0.0003848448977805674,0.0005269380053505301,-0.29421669244766235,-0.01215873658657074,-9.805999755859375
981173631000,0.00039009429747238755,0.0002839326043613255,0.0006384581793099642,-0.2990754544734955,-0.0017300695180892944,-9.808773040771484
981187516000,0.0002679988683667034,-9.156038868241012e-05,0.0006059700390323997,-0.2994101941585541,-0.0031595975160598755,-9.807401657104492
981194452000,-0.0004479114431887865,-0.0009662287775427103,-0.0025216734502464533,-0.3283952474594116,0.052371636033058167,-9.788989067077637
981201435000,-0.0006896982667967677,-0.00010396895231679082,0.00016618281370028853,-0.2724858224391937,-0.04001961648464203,-9.81275749206543
981208363000,0.0003523034683894366,0.0004774427507072687,0.0005404009716585279,-0.29353517293930054,-0.012009039521217346,-9.806649208068848
981222222000,0.00015158999303821474,0.00022751238429918885,0.00045727024553343654,-0.30101460218429565,0.004179731011390686,-9.808384895324707
981229207000,-0.0006085656932555139,-0.0007794825942255557,-0.002542889676988125,-0.3282279968261719,0.05043284595012665,-9.7890625
981236134000,-0.0008921907283365726,-0.002390917856246233,0.003684407100081444,-0.2903270125389099,-0.09942743182182312,-9.785013198852539
981243060000,0.0010352168465033174,0.0010984374675899744,-0.0019761947914958,-0.2939762473106384,0.08059175312519073,-9.801379203796387
981256938000,0.00033709860872477293,0.0013162640389055014,0.0005416009807959199,-0.2973330616950989,-0.009762212634086609,-9.812198638916016
981264077000,0.0003833178780041635,0.0009345742291770875,0.0006283919792622328,-0.30113285779953003,-0.0018142759799957275,-9.812331199645996
981270852000,0.00036564996116794646,0.00044259693822823465,0.0007315943366847932,-0.30205321311950684,-0.0017808526754379272,-9.811515808105469
981277777000,0.0003395102685317397,9.443766612093896e-05,0.0006642674561589956,-0.30152973532676697,0.0011331439018249512,-9.811843872070312
981284771000,0.00011275202268734574,-0.00016982483793981373,0.00045487534953281283,-0.302420973777771,0.004643052816390991,-9.810722351074219
981298656000,-0.0008588276105001569,-0.00027797097573056817,-4.871976489084773e-05,-0.27334725856781006,-0.03668416291475296,-9.813044548034668
981305580000,0.0004991490859538317,0.0001421690103597939,0.0006853921222500503,-0.29235535860061646,-0.01989741623401642,-9.803971290588379
981312547000,0.0003054687404073775,0.0002480809926055372,0.0004688345070462674,-0.3004014492034912,0.00473804771900177,-9.80886459350586
981319505000,0.00026622836594469845,-2.8321286663413048e-05,0.0006155995070002973,-0.2999691367149353,-0.00243319571018219,-9.807256698608398
981333415000,-0.0006806680466979742,-3.763078711926937e-05,0.00016537946066819131,-0.2726295590400696,-0.04005872458219528,-9.812158584594727
981340294000,0.0003855082322843373,0.000532711623236537,0.0005340254283510149,-0.29392576217651367,-0.012059912085533142,-9.806499481201172
981347299000,0.0004120392259210348,0.00036226477823220193,0.0006336407968774438,-0.2997516095638275,-0.0019012987613677979,-9.8087739944458
981354195000,0.00039523077430203557,0.0001410683908034116,0.0006464949692599475,-0.30053889751434326,-0.0002658069133758545,-9.808332443237305
981361110000,0.00016463070642203093,2.9394039302133024e-05,0.0004511919105425477,-0.3013019561767578,0.004442036151885986,-9.808810234069824
981375003000,-0.0008132298244163394,-0.00015420897398144007,0.00011637588613666594,-0.2720906734466553,-0.043991781771183014,-9.811814308166504
981381979000,0.00036788260331377387,0.0004982533864676952,0.0005237022996880114,-0.2931697964668274,-0.013327822089195251,-9.806387901306152
981388939000,0.00038178273825906217,0.00034198735374957323,0.0006368071772158146,-0.299522340297699,-0.002041041851043701,-9.808680534362793
981395922000,0.0003339164541102946,0.00014318943431135267,0.0006525038625113666,-0.30033254623413086,-0.00013686716556549072,-9.808226585388184
981402844000,0.00014689310046378523,3.218835627194494e-05,0.0004527759156189859,-0.3012564480304718,0.004263848066329956,-9.808433532714844
981416754000,-0.000850797223392874,9.690818842500448e-06,-4.51614978373982e-05,-0.2731989026069641,-0.03673165291547775,-9.81334114074707
981423640000,0.00033089320641011,0.0003904746554326266,0.00048282669740729034,-0.29377371072769165,-0.015427619218826294,-9.805520057678223
981430654000,0.00042090201168321073,0.0002895380021072924,0.0006241168011911213,-0.29901450872421265,-0.002850636839866638,-9.808626174926758
981437517000,0.0005480912514030933,3.15786455757916e-05,0.0008465772261843085,-0.2991606593132019,-0.004610165953636169,-9.80776309967041
981444462000,-0.0003843801678158343,-0.0007871518610045314,-0.002462708158418536,-0.32945695519447327,0.05667772889137268,-9.790146827697754
981458375000,0.00035963027039542794,0.00044084765249863267,0.0005369110149331391,-0.2939731478691101,-0.011924117803573608,-9.807304382324219
981465375000,0.00038039369974285364,0.00029298855224624276,0.0006411029607988894,-0.29941773414611816,-0.0019406527280807495,-9.808632850646973
981472293000,0.00021063046006020159,0.00015434077067766339,0.0004483723023440689,-0.3013518452644348,0.004057183861732483,-9.808135986328125
981479198000,0.00024332036264240742,-9.425290045328438e-05,0.0006113213603384793,-0.29937416315078735,-0.0031110644340515137,-9.807621002197266
981493089000,-0.0006862491136416793,-0.00010837800800800323,0.00016531205619685352,-0.27250683307647705,-0.040067143738269806,-9.812821388244629
981500058000,0.00041782078915275633,0.0004111269081477076,0.0005269446410238743,-0.29403191804885864,-0.012160807847976685,-9.805936813354492
981506968000,0.0004106361011508852,0.00030331191373988986,0.0006362085114233196,-0.29907241463661194,-0.0018622726202011108,-9.80862808227539
981513989000,0.0001364903582725674,0.0002256586740259081,0.0004611911135725677,-0.3007776141166687,0.004362061619758606,-9.808663368225098
981520891000,0.00023933243937790394,-5.5928583606146276e-05,0.0006107582012191415,-0.29958805441856384,-0.0032968372106552124,-9.807185173034668
981534857000,-0.0006693254108540714,-0.00010682205902412534,0.00016400206368416548,-0.2725527584552765,-0.04019618779420853,-9.812827110290527
981541696000,0.00034169849823229015,0.0004748160718008876,0.0005412534228526056,-0.29347121715545654,-0.011881768703460693,-9.806888580322266
981548685000,0.0004514827160164714,0.00027924758614972234,0.0006290421006269753,-0.2996847629547119,-0.0021839141845703125,-9.807738304138184
981555608000,0.0001777282595867291,0.0002152439410565421,0.00045439813402481377,-0.3006170988082886,0.004359126091003418,-9.808792114257812
981562534000,-0.0005691034020856023,-0.0007931769359856844,-0.002546082716435194,-0.3281934857368469,0.05035807192325592,-9.789002418518066
981576462000,0.001059127738699317,0.0010875971056520939,-0.0019792637322098017,-0.2939928472042084,0.0805160254240036,-9.801166534423828
981583414000,-0.0007236001547425985,0.0011838919017463923,0.00031790058710612357,-0.2796008884906769,-0.024935923516750336,-9.820707321166992
981590308000,0.00034900219179689884,0.0013263416476547718,0.0005416847998276353,-0.29727399349212646,-0.009865760803222656,-9.8121919631958
981597331000,0.0003990023978985846,0.0009326131548732519,0.0006268140859901905,-0.30116045475006104,-0.001808270812034607,-9.81224250793457
981611246000,0.0003789709007833153,4.956815973855555e-05,0.0006382943247444928,-0.30208098888397217,-0.0002196580171585083,-9.811017990112305
981618228000,0.0003505056374706328,-0.0002886343572754413,0.0006412334041669965,-0.30128714442253113,-4.9427151679992676e-05,-9.810349464416504
981625078000,-0.00046289863530546427,-0.0012687344569712877,-0.002514888998121023,-0.3294302523136139,0.05338333547115326,-9.790650367736816
981632158000,-0.0006710098241455853,-0.0003960343892686069,0.00016027427045628428,-0.27277448773384094,-0.040010541677474976,-9.812867164611816
981639033000,0.0004102852544747293,0.0002053750358754769,0.000528767064679414,-0.29376810789108276,-0.012148380279541016,-9.804794311523438
981652924000,0.0003492461983114481,-3.25762084685266e-05,0.0006524916971102357,-0.3001551628112793,-0.0002124011516571045,-9.807653427124023
981659822000,-0.000653875817079097,-0.000839288521092385,-0.0027053190860897303,-0.32977283000946045,0.057863280177116394,-9.789337158203125
981666930000,-0.0007962308009155095,-6.145599763840437e-05,0.00012608757242560387,-0.27208855748176575,-0.04303021728992462,-9.811132431030273
981673681000,0.0003843330778181553,0.0005653140251524746,0.0005226728972047567,-0.29339274764060974,-0.01315636932849884,-9.806021690368652
981687576000,0.0001947504933923483,0.000261981796938926,0.0004510299186222255,-0.30123206973075867,0.004262223839759827,-9.809024810791016
981694523000,0.00027826070436276495,-5.1321403589099646e-05,0.000602609827183187,-0.2999342083930969,-0.003221079707145691,-9.80768871307373
981701590000,-0.00048161379527300596,-0.0009228520793840289,-0.0025163686368614435,-0.3284226655960083,0.05248221755027771,-9.789895057678223
981708395000,-0.000671377987600863,-0.00010545650729909539,0.00016089067503344268,-0.272960364818573,-0.04014556109905243,-9.813294410705566
981715451000,0.0004003821813967079,0.0003860893484670669,0.0005284994258545339,-0.2942623496055603,-0.012075766921043396,-9.806336402893066
981722357000,0.00037856848211959004,0.0002716517774388194,0.0006399098201654851,-0.2991860508918762,-0.00181560218334198,-9.80885124206543
981736230000,-0.0005644261837005615,-0.0008440808742307127,-0.002546291332691908,-0.3281603753566742,0.050452202558517456,-9.78917121887207
981743114000,-0.0007053310982882977,-8.180015720427036e-05,0.00015646028623450547,-0.2730666995048523,-0.04083402454853058,-9.81281566619873
981750118000,0.00020171981304883957,0.0005752579309046268,0.00033604595228098333,-0.2945655584335327,-0.007965445518493652,-9.807661056518555
981757019000,0.000303448032354936,0.0003252637980040163,0.0005973730003461242,-0.2989051938056946,-0.005074977874755859,-9.808191299438477
981770941000,0.00035049516009166837,-5.367858102545142e-05,0.0006482808385044336,-0.30014336109161377,-0.00018833577632904053,-9.80813217163086
981777856000,-0.0004630691255442798,-0.0009580673649907112,-0.002509264973923564,-0.32879406213760376,0.053410544991493225,-9.789297103881836
981784929000,-0.0006843131850473583,-0.00013537704944610596,0.00016675516963005066,-0.2728164792060852,-0.03994618356227875,-9.81299114227295
981791744000,0.00043237677891738713,0.000383415404940024,0.0005273859133012593,-0.29404354095458984,-0.012214809656143188,-9.806048393249512
981798830000,0.0003998750471509993,0.0002842334797605872,0.0006380001432262361,-0.2990058660507202,-0.0017390698194503784,-9.808799743652344
981812574000,0.0002914161013904959,-0.00010824069613590837,0.0005991621292196214,-0.2999516725540161,-0.0035738497972488403,-9.806546211242676
981819567000,-0.0004339401493780315,-0.0009742097463458776,-0.002525168936699629,-0.3282536268234253,0.05237512290477753,-9.789039611816406
981826485000,-0.0006684544496238232,-0.0001334042171947658,0.00016499802586622536,-0.27253931760787964,-0.040099866688251495,-9.812470436096191
981833507000,0.00018050335347652435,0.0005717334570363164,0.0003417331899981946,-0.29414260387420654,-0.007589325308799744,-9.807202339172363
981840358000,0.00035872685839422047,0.000285409769276157,0.0005864406120963395,-0.2990807294845581,-0.005243733525276184,-9.807284355163574
981854348000,-0.0006175182643346488,-0.0006963331834413111,-0.0027082895394414663,-0.32966816425323486,0.057668477296829224,-9.789907455444336
981861249000,-0.0010139313526451588,-0.0024516433477401733,0.0036594984121620655,-0.2900174856185913,-0.10118750482797623,-9.784811973571777
981868244000,0.0012471301015466452,0.0010335417464375496,-0.0017899820813909173,-0.29253268241882324,0.0751369297504425,-9.800585746765137
981875084000,-0.0007429345860145986,0.001381834503263235,0.00015365057333838195,-0.2806254029273987,-0.01778663694858551,-9.822672843933105
981882141000,0.00021921121515333652,0.0013219397515058517,0.0005151891964487731,-0.297443151473999,-0.011600077152252197,-9.811573028564453
981895908000,0.0003216143522877246,0.0004875792365055531,0.0006468594656325877,-0.3017732501029968,-0.0003361701965332031,-9.812219619750977
981902923000,0.0005602958262898028,-5.51981502212584e-05,0.0008356117177754641,-0.30125266313552856,-0.0047097355127334595,-9.810484886169434
981909873000,0.0004554350161924958,-0.0002928226313088089,0.0006826668977737427,-0.30177542567253113,0.0030439943075180054,-9.810943603515625
981916810000,-0.0006702260579913855,-0.0012016361579298973,-0.0026968796737492085,-0.33057665824890137,0.058907195925712585,-9.791154861450195
981930706000,0.00041413199505768716,0.0002751728461589664,0.0005164787289686501,-0.2926519513130188,-0.013434618711471558,-9.80432415008545
981937606000,0.0004305826441850513,0.00018053996609523892,0.0006305027636699378,-0.2991810441017151,-0.002077341079711914,-9.808086395263672
981944568000,0.00021806653239764273,8.520526171196252e-05,0.0004462844517547637,-0.301134318113327,0.004160284996032715,-9.80817699432373
981951513000,-0.0005196268321014941,-0.0009095141431316733,-0.0025562485679984093,-0.32837575674057007,0.050337210297584534,-9.788622856140137
981965463000,0.00038512598257511854,0.0005196569836698472,0.0005330528947524726,-0.29425156116485596,-0.01214320957660675,-9.80671501159668
981972361000,0.00040736774099059403,0.00034253267222084105,0.0006336062797345221,-0.2997094988822937,-0.0018918514251708984,-9.808804512023926
981979237000,0.00016727764159440994,0.00022638683731202036,0.00045543030137196183,-0.3011746108531952,0.00422196090221405,-9.809033393859863
981986249000,0.00024262866645585746,-7.303268648684025e-05,0.0006094913114793599,-0.29981905221939087,-0.0032122284173965454,-9.80770206451416
982000113000,-0.0006731731118634343,-0.00013102608500048518,0.00016368394426535815,-0.2727418541908264,-0.04023782163858414,-9.81268310546875
982007070000,0.00041854011942632496,0.00040546682430431247,0.0005284917424432933,-0.2939984202384949,-0.012143492698669434,-9.806103706359863
982014116000,0.00040783174335956573,0.0002847163414116949,0.0006369970506057143,-0.2992425560951233,-0.0018309801816940308,-9.808775901794434
982021038000,0.0001203162973979488,0.00020520860562101007,0.0004618458915501833,-0.30087655782699585,0.004443556070327759,-9.808817863464355
982027878000,-0.0005205207271501422,-0.000855090853292495,-0.002555838320404291,-0.3287779688835144,0.050032034516334534,-9.788372039794922
982041772000,0.0002539959968999028,0.0004659613186959177,0.0004973021568730474,-0.2935580015182495,-0.015272706747055054,-9.806822776794434
982048766000,0.0004066163091920316,0.00026850105496123433,0.0007138209766708314,-0.2993476688861847,-0.004561394453048706,-9.808048248291016
982055653000,0.00040554621955379844,0.00012831302592530847,0.0006652137963101268,-0.2999291718006134,0.0006976574659347534,-9.808554649353027
982062615000,0.00014206714695319533,2.8370166546665132e-05,0.00046035266132093966,-0.30111315846443176,0.004786401987075806,-9.808606147766113
982076474000,-0.0008530251798219979,-6.498594302684069e-05,4.445277591003105e-05,-0.27333927154541016,-0.03824010491371155,-9.8125638961792
982083466000,0.0005540483398362994,0.0003342857526149601,0.0006981434999033809,-0.2923012375831604,-0.018811136484146118,-9.805234909057617
982090365000,0.0005324340309016407,0.0003143258800264448,0.000669405737426132,-0.29955029487609863,0.0005879104137420654,-9.809109687805176
982097385000,0.00017272689728997648,0.0002228711236966774,0.0004681884020101279,-0.3010340929031372,0.005275607109069824,-9.808862686157227
982104322000,0.0002362153318244964,-6.034101534169167e-05,0.0006124932551756501,-0.29961949586868286,-0.0029865503311157227,-9.807376861572266
982118177000,-0.0006702821119688451,-0.00010831141844391823,0.00016427163791377097,-0.2725183665752411,-0.040174633264541626,-9.813020706176758
982125076000,0.00033280355273745954,0.0004640237311832607,0.000542976486030966,-0.2935071885585785,-0.011858716607093811,-9.806910514831543
982132275000,0.00045047132880426943,0.0002593386743683368,0.0006280113593675196,-0.2997558116912842,-0.0021687597036361694,-9.80762767791748
982139037000,0.00018508860375732183,0.0001955770858330652,0.0004613411729224026,-0.3005736470222473,0.004180207848548889,-9.808809280395508
982145978000,-0.0005878570955246687,-0.0007963421521708369,-0.002540941582992673,-0.3280807137489319,0.050541117787361145,-9.78913688659668
982159871000,0.0009568235836923122,0.0010951285948976874,-0.0020172945223748684,-0.29331716895103455,0.07728356122970581,-9.80061149597168
982166919000,-0.0007310050423257053,0.0011915775248780847,0.0003070449165534228,-0.2794637382030487,-0.026006534695625305,-9.820518493652344
982173764000,0.0002818220527842641,0.0013850234681740403,0.0005515287048183382,-0.29677969217300415,-0.00985226035118103,-9.812784194946289
982180762000,0.00034037919249385595,0.000968772335909307,0.0006319065578281879,-0.3013620972633362,-0.0017771422863006592,-9.812103271484375
982194567000,0.0005400079535320401,-1.1992815416306257e-05,0.0008406240376643836,-0.30069735646247864,-0.004450663924217224,-9.811257362365723
982201562000,0.0004406569933053106,-0.00026499349041841924,0.0006856885738670826,-0.30190619826316833,0.003043249249458313,-9.810909271240234
982208468000,-0.0006637561600655317,-0.0011904281564056873,-0.002699041971936822,-0.3307221531867981,0.05887128412723541,-9.79108715057373
982215494000,-0.0008309874101541936,-0.0004924763925373554,0.00012992540723644197,-0.27267175912857056,-0.04285489022731781,-9.81151294708252
982222361000,0.0004218289686832577,0.00025246647419407964,0.0005152070662006736,-0.292873740196228,-0.01338377594947815,-9.80439567565918
982236285000,0.00020332560234237462,7.786796049913391e-05,0.00044896118924953043,-0.301042377948761,0.004223451018333435,-9.808279037475586
982243198000,-0.0005082646966911852,-0.0009253054158762097,-0.0025556478649377823,-0.3284521698951721,0.05022147297859192,-9.788440704345703
982250200000,-0.0006653305608779192,2.877606311812997e-05,0.00015588250244036317,-0.2719864845275879,-0.04088457673788071,-9.81274700164795
982257123000,0.00037650688318535686,0.0005315749440342188,0.0005351844010874629,-0.2941609025001526,-0.012092500925064087,-9.806769371032715
982270986000,0.0001795276184566319,0.00022537846234627068,0.00045378340291790664,-0.3012748658657074,0.004122555255889893,-9.80889892578125
982277909000,0.00023542711278423667,-7.303534948732704e-05,0.0006104020867496729,-0.29983171820640564,-0.0031439661979675293,-9.807716369628906
982284901000,-0.0004656892269849777,-0.0009739862289279699,-0.0025211290922015905,-0.328701913356781,0.05235022306442261,-9.789274215698242
982291866000,-0.0006755604408681393,-0.00011260953033342957,0.00016383601177949458,-0.2726466655731201,-0.04015776515007019,-9.812994003295898
982305693000,0.00038875380414538085,0.00027851000777445734,0.0006376364035531878,-0.2992388606071472,-0.001736566424369812,-9.808788299560547
982312630000,0.00020911384490318596,0.00015112267283257097,0.00044796723523177207,-0.3012857437133789,0.004061251878738403,-9.808146476745605
982319687000,-0.0005503587308339775,-0.0008359095663763583,-0.0025485504884272814,-0.3281921446323395,0.050367072224617004,-9.789152145385742
982326535000,-0.0008545838063582778,8.003250695765018e-05,-4.37134804087691e-05,-0.27353209257125854,-0.0365733727812767,-9.814249038696289
982333572000,0.00044303882168605924,0.0003670270962174982,0.0006927482318133116,-0.2928396761417389,-0.01958455890417099,-9.806360244750977
982347451000,0.0003125121584162116,6.866842159070075e-05,0.0006125283543951809,-0.30016234517097473,-0.002659425139427185,-9.807333946228027
982354348000,0.0003475832345429808,-8.300566696561873e-05,0.0006415049429051578,-0.29976990818977356,-0.000821426510810852,-9.808141708374023
982361255000,-0.0002696792362257838,-0.001065286691300571,-0.002313913544639945,-0.32785508036613464,0.04888951778411865,-9.788739204406738
982368242000,-0.0007433230639435351,-2.0657782442867756e-05,6.413913069991395e-06,-0.2740377187728882,-0.0325072780251503,-9.814020156860352
982375160000,0.0003187734691891819,0.0003567897656466812,0.0004994425107724965,-0.2938796281814575,-0.014188483357429504,-9.80579662322998
982389048000,0.0005947506870143116,-1.6987149138003588e-05,0.0008405527332797647,-0.2993156611919403,-0.0049509406089782715,-9.807060241699219
982396017000,0.00045420046080835164,-6.99095253366977e-05,0.0006918177823536098,-0.30036231875419617,0.0031849145889282227,-9.808526039123535
982402968000,-0.0006607284303754568,-0.0008760005584917963,-0.002692538546398282,-0.32967835664749146,0.05893056094646454,-9.789633750915527
982409972000,-0.0008318359614349902,-0.00017834611935541034,0.00012963642075192183,-0.27235838770866394,-0.042711853981018066,-9.811556816101074
982416860000,0.00034066842636093497,0.0005127822514623404,0.0005278329481370747,-0.29274260997772217,-0.013132378458976746,-9.806293487548828
982430819000,0.0003526242508087307,0.00016786929336376488,0.000654021161608398,-0.3000370264053345,-0.00022108852863311768,-9.808059692382812
982437688000,0.00016006037185434252,5.8835154050029814e-05,0.00045215393765829504,-0.30100017786026,0.004333853721618652,-9.808365821838379
982444586000,-0.0005414474871940911,-0.0009465327020734549,-0.0025536061730235815,-0.3281528949737549,0.05018548667430878,-9.788626670837402
982451601000,-0.0011039823293685913,-0.002414322691038251,0.0034929709509015083,-0.2906239926815033,-0.0947825014591217,-9.784491539001465
982458494000,0.0009424958843737841,0.001098467269912362,-0.002016462152823806,-0.29266583919525146,0.0773332417011261,-9.800003051757812
982472390000,0.00029786897357553244,0.001394330058246851,0.0005489510949701071,-0.29680299758911133,-0.009815230965614319,-9.812572479248047
982479300000,0.0003816602402366698,0.0009697448695078492,0.0006260524969547987,-0.3013780117034912,-0.0018703937530517578,-9.81192684173584
982486355000,0.00033559685107320547,0.0005244797794148326,0.000645171501673758,-0.3018411695957184,-0.00020185112953186035,-9.812076568603516
982493195000,0.0005074020009487867,1.535547198727727e-05,0.0008435111376456916,-0.3009225130081177,-0.004483208060264587,-9.811013221740723
982507085000,-0.0007094858447089791,-0.0004662610590457916,0.0001725367910694331,-0.27512118220329285,-0.03885982930660248,-9.81578540802002
982514108000,0.00041017591138370335,9.683336247690022e-05,0.0005278788157738745,-0.294094979763031,-0.012151628732681274,-9.806684494018555
982521181000,0.0004492031002882868,-5.083871656097472e-05,0.0006279100198298693,-0.2995837926864624,-0.0019790679216384888,-9.808221817016602
982527941000,0.00021051260409876704,-0.00011584469757508487,0.00044741990859620273,-0.30097469687461853,0.004244551062583923,-9.80795955657959
982541854000,-0.0008538546971976757,8.211383828893304e-05,-4.394325878820382e-05,-0.27267664670944214,-0.03656596690416336,-9.811687469482422
982548848000,0.00025246781297028065,0.0005547138280235231,0.0004961402155458927,-0.29320114850997925,-0.015195086598396301,-9.80550765991211
982555824000,0.00045036806841380894,0.00032884065876714885,0.0007070951978676021,-0.2996786832809448,-0.004732400178909302,-9.807782173156738
982562712000,0.0004217401146888733,0.00018858244584407657,0.0006644554086960852,-0.2999888062477112,0.0007588118314743042,-9.808843612670898
982576555000,-0.0005298794712871313,-0.0009631020366214216,-0.002554698148742318,-0.3284626603126526,0.050302281975746155,-9.788856506347656
982583519000,-0.000857472070492804,-0.00010743149323388934,4.5601911551784724e-05,-0.27366384863853455,-0.03804142028093338,-9.812538146972656
982590427000,0.000519509194418788,0.00039954332169145346,0.0007043666555546224,-0.291735976934433,-0.018712610006332397,-9.806100845336914
982597473000,0.0005218626465648413,0.00033536553382873535,0.000669575238134712,-0.29996055364608765,0.0005469918251037598,-9.80912971496582
982604384000,0.00016466107626911253,0.00022161731612868607,0.0004665692977141589,-0.30126953125,0.0052909404039382935,-9.808966636657715
982618248000,-0.0004741867887787521,-0.0009673729073256254,-0.002520476235076785,-0.3286210894584656,0.05241803824901581,-9.78914737701416
982625160000,-0.0006815529777668417,-0.0001101676607504487,0.0001619672548258677,-0.27260303497314453,-0.04013018310070038,-9.812952995300293
982632187000,0.00040859842556528747,0.00040325766894966364,0.0005277877207845449,-0.2940669357776642,-0.012150391936302185,-9.806087493896484
982639044000,0.00039963924791663885,0.00028870670939795673,0.000637288496363908,-0.29913535714149475,-0.0018577277660369873,-9.808696746826172
982645977000,0.00015222413640003651,0.00019812831305898726,0.00045784699614159763,-0.3009171485900879,0.004282757639884949,-9.808561325073242
982659900000,-0.0008752170251682401,7.060781354084611e-05,-3.90930290450342e-05,-0.27330389618873596,-0.0364137664437294,-9.814489364624023
982666861000,0.0002708010724745691,0.0004611395997926593,0.0004950281581841409,-0.29355841875076294,-0.015318885445594788,-9.806785583496094
982673787000,0.00038349299575202167,0.00032236133120022714,0.0006277820211835206,-0.2991628050804138,-0.002835690975189209,-9.808591842651367
982680755000,0.0005390059668570757,4.3131731217727065e-05,0.000849102798383683,-0.2992141544818878,-0.00475214421749115,-9.807784080505371
982687683000,0.00042547163320705295,-5.084776785224676e-05,0.0006935664569027722,-0.30066806077957153,0.0031409859657287598,-9.80859088897705
982701581000,-0.0007948291022330523,-0.0001820275210775435,0.0001266929175471887,-0.2723734676837921,-0.04289880394935608,-9.812015533447266
982708481000,0.000389054068364203,0.00043477758299559355,0.0005212654359638691,-0.2932569980621338,-0.013140693306922913,-9.805957794189453
982715489000,0.000394192902604118,0.00031689414754509926,0.0006360096740536392,-0.2990269660949707,-0.0020184367895126343,-9.808625221252441
982722389000,0.00035140631371177733,0.00013514593592844903,0.0006543229101225734,-0.29997217655181885,-0.00020387768745422363,-9.808039665222168
982736396000,-0.0005778344348073006,-0.0009443405433557928,-0.0025463425554335117,-0.32804322242736816,0.05021865665912628,-9.788599967956543
982743260000,-0.0010902252979576588,-0.0024137799628078938,0.003491598181426525,-0.2907220125198364,-0.09493227303028107,-9.78390884399414
982750227000,0.0009383222786709666,0.0011121737770736217,-0.002016671933233738,-0.29260534048080444,0.07741634547710419,-9.799912452697754
982757115000,-0.000693748181220144,0.0012243697419762611,0.00030451733618974686,-0.2793368399143219,-0.026275023818016052,-9.820387840270996
982771058000,0.0003670069854706526,0.0009870840003713965,0.0006289698649197817,-0.301336407661438,-0.0018585175275802612,-9.81204891204834
982777938000,0.0003633208107203245,0.0005238380981609225,0.0006425355677492917,-0.3020055294036865,-0.00035515427589416504,-9.811930656433105
982784975000,0.00031021126778796315,0.00010515315807424486,0.0006470581283792853,-0.3017880916595459,7.133185863494873e-05,-9.81160831451416
982791912000,-0.0005231398972682655,-0.0009767531882971525,-0.0025071920827031136,-0.3300711214542389,0.053466036915779114,-9.792154312133789
982798875000,-0.0006909497897140682,-0.0004488495469558984,0.0001575392670929432,-0.2748889923095703,-0.04007454216480255,-9.815337181091309
982812667000,0.0004570941673591733,-4.082184750586748e-05,0.0006274165352806449,-0.29952871799468994,-0.0019292086362838745,-9.808465957641602
982819644000,0.00023932350450195372,-0.00011094553337898105,0.00044602001435123384,-0.3010123372077942,0.00414431095123291,-9.808005332946777
982826571000,-0.0005550667992793024,-0.001009125728160143,-0.0025466191582381725,-0.3277653455734253,0.05050098896026611,-9.78831672668457
982833536000,-0.0008897791849449277,5.509902257472277e-05,-3.8767189835198224e-05,-0.2727738916873932,-0.03645044565200806,-9.811577796936035
982840440000,0.00045300828060135245,0.0004756333655677736,0.0006903777248226106,-0.2922061085700989,-0.01972328871488571,-9.804952621459961
982854403000,0.00028037565061822534,0.0001656941167311743,0.0006204817327670753,-0.3000383973121643,-0.0024446994066238403,-9.808049201965332
982861406000,0.00038019742351025343,-4.496221663430333e-05,0.0006350062903948128,-0.30031269788742065,-0.0009608715772628784,-9.807988166809082
982868348000,-0.00022132787853479385,-0.0010522768134251237,-0.0023205133620649576,-0.32809939980506897,0.04880106449127197,-9.788991928100586
982875230000,-0.0007432781276293099,-2.4596403818577528e-05,7.353046385105699e-06,-0.27419573068618774,-0.03235583007335663,-9.814532279968262
982882278000,0.0003375949745532125,0.0003528054221533239,0.0004978096694685519,-0.29401612281799316,-0.014257222414016724,-9.80605411529541
982896083000,0.0005912032211199403,-3.266124986112118e-05,0.0008414079784415662,-0.29941073060035706,-0.004861325025558472,-9.807323455810547
982903081000,0.0004529621219262481,-0.00010245153680443764,0.0006904799374751747,-0.3005833625793457,0.0032051801681518555,-9.808480262756348
982910046000,-0.0006674150354228914,-0.0008998489356599748,-0.0026921085081994534,-0.32971006631851196,0.058932140469551086,-9.78973388671875
982916987000,-0.0008543144795112312,-0.0002293213619850576,0.00013367981591727585,-0.27260950207710266,-0.04268511384725571,-9.810787200927734
982923903000,0.00038664875319227576,0.000524603296071291,0.000524110218975693,-0.2925322651863098,-0.013394847512245178,-9.80598258972168
982937777000,0.0003865235485136509,0.000172772619407624,0.0006487220525741577,-0.30014294385910034,-0.00026081502437591553,-9.808183670043945
982944700000,-0.0006462340243160725,-0.0006765572470612824,-0.002704912330955267,-0.3298383951187134,0.057968899607658386,-9.790189743041992
982951672000,-0.0008022451074793935,-7.915141759440303e-05,0.00012684351531788707,-0.2729610502719879,-0.0429539829492569,-9.813674926757812
982958549000,0.000374699680833146,0.00047375319991260767,0.0005247215158306062,-0.293631911277771,-0.013151973485946655,-9.807469367980957
982972528000,0.00013251107884570956,0.00020920549286529422,0.00046121201012283564,-0.30096930265426636,0.004363507032394409,-9.808854103088379
982979386000,0.0002963460283353925,-0.00012188934488222003,0.000599676975980401,-0.2999612092971802,-0.003462180495262146,-9.806885719299316
982986385000,-0.00043000304140150547,-0.000999002018943429,-0.0025239880196750164,-0.32833564281463623,0.052370622754096985,-9.789149284362793
982993287000,-0.0006724221166223288,-0.00012833683285862207,0.00016609806334599853,-0.27236509323120117,-0.040050484240055084,-9.812928199768066
983007168000,0.0004471853608265519,0.0002675609721336514,0.0006293450715020299,-0.29968714714050293,-0.0021289587020874023,-9.807734489440918
983014121000,0.00017486630531493574,0.00020469185255933553,0.00045657099690288305,-0.30060070753097534,0.004321306943893433,-9.808762550354004
983021151000,0.00023897874052636325,-6.0102334828116e-05,0.0006119876634329557,-0.29935741424560547,-0.0031672418117523193,-9.807395935058594
983027999000,-0.000454972090665251,-0.0009507319191470742,-0.0025212171021848917,-0.32840049266815186,0.052340105175971985,-9.788901329040527
983035037000,-0.0008984976448118687,-0.0024911186192184687,0.0036986989434808493,-0.28984585404396057,-0.098398357629776,-9.78402042388916
983048969000,-0.000768178841099143,0.0013157196808606386,0.00015571813855785877,-0.28103023767471313,-0.017684072256088257,-9.821486473083496
983055794000,0.00025211297906935215,0.0013242779532447457,0.0005132837686687708,-0.2970152795314789,-0.011866077780723572,-9.811543464660645
983062730000,0.00039638474117964506,0.0009357722010463476,0.000616408244241029,-0.30094650387763977,-0.002634957432746887,-9.812017440795898
983069771000,0.0003423558082431555,0.0005130999488756061,0.0006447159685194492,-0.30163252353668213,-0.0003040134906768799,-9.812220573425293
983083728000,-0.00031062064226716757,-0.0010767499916255474,-0.0023119118995964527,-0.32922104001045227,0.049042269587516785,-9.791535377502441
983090625000,-0.0007433627615682781,-0.00024579407181590796,-6.120067155279685e-07,-0.2756116986274719,-0.03260096162557602,-9.817537307739258
983097608000,0.00027318732463754714,5.4282951168715954e-05,0.0005025374703109264,-0.29450535774230957,-0.014094516634941101,-9.806560516357422
983104479000,0.00039260380435734987,-5.0695380195975304e-05,0.0006261678645387292,-0.2993122935295105,-0.0027423501014709473,-9.807870864868164
983111406000,0.0005714712897315621,-0.00028455472784116864,0.0008427696884609759,-0.29915711283683777,-0.004811897873878479,-9.80681324005127
983125273000,-0.0006848993944004178,-0.0009738888475112617,-0.002690267050638795,-0.329336553812027,0.05895054340362549,-9.788280487060547
983132273000,-0.0008200360462069511,-0.0001260782591998577,0.0001321120944339782,-0.27168986201286316,-0.042928390204906464,-9.809276580810547
983139157000,0.0003899915609508753,0.0006017949199303985,0.0005235780263319612,-0.29275965690612793,-0.013239413499832153,-9.805035591125488
983146157000,0.00044642522698268294,0.0004209301550872624,0.0006280382513068616,-0.29965972900390625,-0.002148941159248352,-9.80835247039795
983153174000,0.0004167775041423738,0.0002095632953569293,0.0006421448779292405,-0.3003142476081848,-0.00021316111087799072,-9.808335304260254
983167144000,-0.0008075659279711545,-6.425724131986499e-05,0.00012592483835760504,-0.2734290361404419,-0.04289610683917999,-9.81387996673584
983173929000,0.0003837921831291169,0.0004694077360909432,0.0005244369385764003,-0.2938336133956909,-0.013247281312942505,-9.807706832885742
983180803000,0.0003882820310536772,0.00030223073554225266,0.0006370951305143535,-0.29950016736984253,-0.0019821971654891968,-9.80900764465332
983187846000,0.00014059727254789323,0.00018876515969168395,0.00045908972970210016,-0.30111876130104065,0.004262164235115051,-9.808900833129883
983201760000,-0.0004456923343241215,-0.001013137400150299,-0.002522229216992855,-0.3283698558807373,0.05239973962306976,-9.789244651794434
983208589000,-0.0006604850641451776,-0.00011403171811252832,0.0001639882248127833,-0.2723246216773987,-0.04014986753463745,-9.812891006469727
983215573000,0.0004152529581915587,0.0003974175197072327,0.0005300749908201396,-0.2940702736377716,-0.01207171380519867,-9.805912017822266
983222525000,0.00039499561535194516,0.0002942462160717696,0.0006390706403180957,-0.29903876781463623,-0.0017824172973632812,-9.808741569519043
983229456000,0.000131632958073169,0.00020950402540620416,0.0004599622334353626,-0.3008640706539154,0.004369720816612244,-9.808587074279785
983243307000,-0.0004276459803804755,-0.0009764735586941242,-0.0025239514652639627,-0.3283015787601471,0.05237337946891785,-9.789051055908203
983250330000,-0.0006773314671590924,-0.0001189851900562644,0.0001665239396970719,-0.2724408507347107,-0.040017612278461456,-9.812698364257812
983257228000,0.00035450549330562353,0.00048817272181622684,0.0005413321196101606,-0.29334670305252075,-0.011961400508880615,-9.806808471679688
983264161000,0.0003756452351808548,0.0003369158657733351,0.0006421171128749847,-0.2993319630622864,-0.0018875598907470703,-9.808405876159668
983271198000,0.00018014447414316237,0.0001812708069337532,0.0005434547201730311,-0.3010646104812622,0.0026290416717529297,-9.807982444763184
983285049000,-0.0009092306718230247,-0.002402966609224677,0.003690720535814762,-0.29042720794677734,-0.09884853661060333,-9.78518009185791
983291934000,0.0010539139620959759,0.0010879553155973554,-0.0019788306672126055,-0.293986439704895,0.08052992820739746,-9.801182746887207
983298922000,-0.0007171082543209195,0.0011769190896302462,0.0003176252939738333,-0.2796618640422821,-0.024991683661937714,-9.820669174194336
983305883000,0.0003541824407875538,0.001316092093475163,0.0005408665165305138,-0.29731810092926025,-0.00985032320022583,-9.812176704406738
983319793000,0.000528434757143259,0.0004065434914082289,0.0008427515276707709,-0.30104607343673706,-0.004574388265609741,-9.811596870422363
983326653000,0.000412055233027786,8.63616878632456e-05,0.0006902077002450824,-0.3023400902748108,0.0031033605337142944,-9.812003135681152
983333694000,0.00018077554705087095,-0.000228447635890916,0.00045126950135454535,-0.3028584122657776,0.005104154348373413,-9.81028938293457
983340590000,-0.0005361143266782165,-0.0013094742316752672,-0.0025270290207117796,-0.3288014531135559,0.049833282828330994,-9.790107727050781
983347516000,-0.0008154668612405658,-0.0003363675787113607,4.464233643375337e-05,-0.2733384966850281,-0.037872835993766785,-9.812662124633789
983361429000,0.0005079765687696636,0.00015297633945010602,0.0006672902381978929,-0.2997336685657501,0.000699654221534729,-9.808324813842773
983368462000,0.00017165843746624887,6.921317981323227e-05,0.00046438290155492723,-0.30122146010398865,0.005164489150047302,-9.808426856994629
983375374000,-0.0005474810604937375,-0.0009328321320936084,-0.0025503989309072495,-0.3285260796546936,0.050426289439201355,-9.788376808166504
983382304000,-0.000872066302690655,4.4193235225975513e-05,-3.991674748249352e-05,-0.27324962615966797,-0.03655487298965454,-9.812163352966309
983396151000,0.0004447495157364756,0.0003651855804491788,0.0006194926099851727,-0.2995719909667969,-0.0029984116554260254,-9.808589935302734
983403190000,0.0005868141306564212,7.296015974134207e-05,0.000842814682982862,-0.2994464635848999,-0.004708677530288696,-9.808131217956543
983410023000,0.00048272553249262273,-5.063979187980294e-05,0.0006868774653412402,-0.3010154366493225,0.0030904263257980347,-9.808799743652344
983417020000,-0.000623136293143034,-0.0009000151767395437,-0.002700380515307188,-0.3301548957824707,0.05892004072666168,-9.790011405944824
983423949000,-0.000812376441899687,-0.00018985249334946275,0.00012986645742785186,-0.2724224925041199,-0.042743317782878876,-9.812400817871094
983437946000,0.0004119648365303874,0.00029819010524079204,0.0006352115306071937,-0.2991785407066345,-0.001979723572731018,-9.8089599609375
983444771000,0.00033982962486334145,0.0001174428325612098,0.0006530158570967615,-0.3001191020011902,-3.115832805633545e-05,-9.808306694030762
983451765000,-0.0006655567558482289,-0.0007203179411590099,-0.002700849436223507,-0.32984286546707153,0.057815685868263245,-9.790038108825684
983458650000,-0.0008285747608169913,-0.00011403457028791308,0.00013033949653618038,-0.27302980422973633,-0.04290807247161865,-9.812691688537598
983465636000,0.0003779886174015701,0.0004925320390611887,0.0005238501471467316,-0.29343563318252563,-0.013249963521957397,-9.806953430175781
983479473000,0.00013919132470618933,0.00022846127103548497,0.0004592272453010082,-0.30099764466285706,0.0043866634368896484,-9.808984756469727
983486523000,0.00023764860816299915,-7.392969564534724e-05,0.0006101146573200822,-0.2998010516166687,-0.003294616937637329,-9.807395935058594
983493375000,-0.0004489313578233123,-0.0009733224287629128,-0.0025213833432644606,-0.3286016583442688,0.052267253398895264,-9.78909969329834
983500353000,-0.0006772876949980855,-0.0001214885269291699,0.00016581284580752254,-0.27263617515563965,-0.040027059614658356,-9.813055038452148
983507265000,0.00041479815263301134,0.0003939602756872773,0.0005306405364535749,-0.2940616011619568,-0.01214560866355896,-9.806063652038574
983521287000,0.00013264440349303186,0.0002042591804638505,0.0004607961745932698,-0.3008410334587097,0.0044424086809158325,-9.808653831481934
983528116000,-0.0005268323584459722,-0.0008487139130011201,-0.0025555375032126904,-0.32864779233932495,0.050116196274757385,-9.788346290588379
983535107000,-0.0006638572085648775,-8.383067324757576e-07,0.0001555140916025266,-0.2724170684814453,-0.04098822921514511,-9.814111709594727
983542007000,0.0003841189609374851,0.00044907996198162436,0.0005341173964552581,-0.2942878007888794,-0.0121116042137146,-9.807357788085938
983548980000,0.0003727482398971915,0.0003072881081607193,0.000642953033093363,-0.2992704510688782,-0.0018298327922821045,-9.808767318725586
983562827000,0.0002647711953613907,-9.537834557704628e-05,0.0006098567391745746,-0.29932159185409546,-0.003206029534339905,-9.80762767791748
983569867000,-0.0004655858501791954,-0.0009705233969725668,-0.0025187514256685972,-0.32833272218704224,0.052474141120910645,-9.789144515991211
983576767000,-0.0009048674255609512,-0.0025024437345564365,0.0036993559915572405,-0.2898680865764618,-0.09839363396167755,-9.7839937210083
983583883000,0.001027138321660459,0.0010965868132188916,-0.0019725384190678596,-0.29334914684295654,0.08074876666069031,-9.800305366516113
983590722000,-0.0007057286566123366,0.0011962361168116331,0.0003160393098369241,-0.2796330451965332,-0.025080673396587372,-9.82038402557373
983604634000,0.0004100354271940887,0.0009429295314475894,0.0006262831157073379,-0.3011741042137146,-0.0019183158874511719,-9.812041282653809
983611540000,0.0005288415704853833,0.0004267491167411208,0.0008428119472227991,-0.30093878507614136,-0.004468828439712524,-9.81168270111084
983618540000,0.0004135567869525403,0.00010740230209194124,0.000689901236910373,-0.30231738090515137,0.0031029880046844482,-9.812017440795898
983625490000,0.00012392674398142844,-0.0001707740011624992,0.00046232048771344125,-0.30255866050720215,0.005294382572174072,-9.810869216918945
983639308000,-0.0008572321385145187,-0.00029102357802912593,-4.8151458031497896e-05,-0.2733210623264313,-0.036751896142959595,-9.813124656677246
983646201000,0.00030250847339630127,0.0001778559380909428,0.0005776412435807288,-0.2931690812110901,-0.016942143440246582,-9.804099082946777
983653262000,0.0006373826181516051,7.500697392970324e-05,0.0008374459575861692,-0.2978477478027344,-0.006327018141746521,-9.80735969543457
983660141000,0.0004771654203068465,-3.852968802675605e-06,0.0006914322730153799,-0.30079227685928345,0.0032524466514587402,-9.808396339416504
983667111000,-0.0006365466397255659,-0.000829567143227905,-0.002694483380764723,-0.3300960063934326,0.05894353985786438,-9.789613723754883
983681050000,0.00039556599222123623,0.0005657956353388727,0.0005218075239099562,-0.2931760549545288,-0.013372138142585754,-9.80605411529541
983688003000,0.0004481096693780273,0.0003757498925551772,0.0006282243994064629,-0.29977554082870483,-0.0021587610244750977,-9.808719635009766
983694897000,0.00040888291550800204,0.00016175667406059802,0.000646300264634192,-0.30039745569229126,-0.00022147595882415771,-9.808560371398926
983701894000,0.00020344892982393503,3.0363458790816367e-05,0.0004480440402403474,-0.3013755679130554,0.0043454766273498535,-9.8087797164917
983716371000,-0.0009825607994571328,-4.096486372873187e-05,-6.088113514124416e-05,-0.27401992678642273,-0.0361175537109375,-9.812525749206543
983723119000,0.0004407501546666026,0.0004066684050485492,0.0007083093514665961,-0.291975200176239,-0.02074902504682541,-9.805039405822754
983730103000,0.0003677670902106911,0.00044003146467730403,0.00047159375390037894,-0.3006129860877991,0.0043692439794540405,-9.80958366394043
983737093000,0.00027255399618297815,0.00014399702195078135,0.0006228560814633965,-0.29988640546798706,-0.0021716058254241943,-9.808104515075684
983743999000,-0.00047212548088282347,-0.0007813450647518039,-0.0024887926410883665,-0.3287079632282257,0.05229125916957855,-9.789846420288086
983757825000,0.0003454415709711611,0.0004069285932928324,0.0005402877577580512,-0.29452329874038696,-0.011709153652191162,-9.807684898376465
983764810000,0.00043051724787801504,0.00021826487500220537,0.0006311657489277422,-0.299790620803833,-0.002093985676765442,-9.808220863342285
983771812000,0.00041594213689677417,9.526876965537667e-06,0.0006453401292674243,-0.3003118932247162,-0.0002976357936859131,-9.807854652404785
983778708000,0.00015134582645259798,-3.814428055193275e-05,0.00045622221659868956,-0.30071577429771423,0.0045373886823654175,-9.808699607849121
983792935000,-0.0008431929163634777,2.120225690305233e-05,-1.0069999916595407e-05,-0.27275338768959045,-0.03733275830745697,-9.812031745910645
983800044000,0.0003555006405804306,0.00044537769281305373,0.0004941450315527618,-0.2935977578163147,-0.01475149393081665,-9.805395126342773
983806955000,0.000438412360381335,0.0002678607124835253,0.0007261307328008115,-0.2991640865802765,-0.004421159625053406,-9.808073043823242
983813930000,0.0004457387258298695,0.00015646556857973337,0.0006668539135716856,-0.2996843457221985,0.0008237957954406738,-9.808627128601074
983827823000,-0.0008338925545103848,-0.00013096071779727936,0.000131914290250279,-0.27323922514915466,-0.04279152303934097,-9.812857627868652
983834777000,0.00040859257569536567,0.00048234930727630854,0.0005195803823880851,-0.2933565378189087,-0.013359367847442627,-9.807085990905762
983841759000,0.00044251669896766543,0.0003309198364149779,0.0006316260551102459,-0.29931211471557617,-0.0021391957998275757,-9.808843612670898
983848642000,0.0003616462927311659,0.0001448654365958646,0.0006536355940625072,-0.30001282691955566,-4.3585896492004395e-05,-9.808562278747559
983862489000,-0.0005608400097116828,-0.0009750302415341139,-0.002551117679104209,-0.32817259430885315,0.05029803514480591,-9.788796424865723
983869461000,-0.0008764709928072989,-3.989919787272811e-05,-4.050097777508199e-05,-0.2732389569282532,-0.03660506010055542,-9.813182830810547
983876325000,0.00032707929494790733,0.0004002442874480039,0.0004858635657001287,-0.29326897859573364,-0.015522629022598267,-9.805597305297852
983883329000,0.0004208793689031154,0.0003044473414774984,0.0006262668175622821,-0.29871219396591187,-0.0029363036155700684,-9.808640480041504
983890261000,0.000356503325747326,0.00013318088895175606,0.0006536705186590552,-0.29983991384506226,-0.00022573769092559814,-9.808188438415527
983904183000,-0.0005475656362250447,-0.0009552966221235693,-0.0025512638967484236,-0.32808852195739746,0.05009840428829193,-9.78846263885498
983911099000,-0.0011141228023916483,-0.0023873860482126474,0.003493428695946932,-0.29043710231781006,-0.09472832083702087,-9.784344673156738
983918073000,0.0009492362150922418,0.0011097349924966693,-0.0020160158164799213,-0.2927559018135071,0.0772358775138855,-9.799769401550293
983924959000,-0.0007118736393749714,0.0012185807572677732,0.0003064001211896539,-0.2793455421924591,-0.026128731667995453,-9.820378303527832
983938827000,0.00036710448330268264,0.0009824945591390133,0.0006283621187321842,-0.3012763261795044,-0.0017800778150558472,-9.812085151672363
983945734000,0.0003342039999552071,0.0005303204525262117,0.0006451618392020464,-0.30189865827560425,-0.00023983418941497803,-9.812021255493164
983952741000,0.0005063808639533818,1.982570393010974e-05,0.0008438180084340274,-0.3009290099143982,-0.00449061393737793,-9.811038970947266
983959685000,-0.0003914342960342765,-0.0009839741978794336,-0.0024696271866559982,-0.3307456970214844,0.05654056370258331,-9.792512893676758
983966685000,-0.0006898934952914715,-0.00047865143278613687,0.00017016079800669104,-0.27514123916625977,-0.038927383720874786,-9.815732955932617
983980443000,0.0004320024745538831,-4.5659951865673065e-05,0.000631138973403722,-0.29950693249702454,-0.0018844157457351685,-9.80834674835205
983987540000,0.00022805055778007954,-0.00011470516619738191,0.0004449465486686677,-0.30100899934768677,0.00414295494556427,-9.80787467956543
983994372000,-0.0005818038480356336,-0.0009992416016757488,-0.002544191898778081,-0.3276354670524597,0.05053339898586273,-9.788274765014648
984001332000,-0.0008547777542844415,8.193467510864139e-05,-4.3050411477452144e-05,-0.2726963460445404,-0.0366952121257782,-9.811609268188477
984015187000,0.0006558267632499337,0.0002971527283079922,0.0008341313223354518,-0.2984333038330078,-0.00637778639793396,-9.808232307434082
984022158000,0.0005061212577857077,0.00018438417464494705,0.0006904632318764925,-0.3009300231933594,0.00315895676612854,-9.809014320373535
984029086000,0.0001806479849619791,4.6506247599609196e-05,0.0004624758439604193,-0.30160582065582275,0.005509793758392334,-9.808792114257812
984036051000,-0.0005410928279161453,-0.0009729405282996595,-0.002552738646045327,-0.32852593064308167,0.05044896900653839,-9.788887977600098
984049936000,0.0005401696544140577,0.00031711760675534606,0.0006780148833058774,-0.2924882173538208,-0.019994564354419708,-9.805208206176758
984056900000,0.0003466007183305919,0.00038083302206359804,0.0004666141467168927,-0.3004353940486908,0.004655763506889343,-9.809724807739258
984063803000,0.00033050685306079686,6.91544555593282e-05,0.0006115935393609107,-0.29998767375946045,-0.002531483769416809,-9.807499885559082
984070783000,0.00036756854387931526,-8.025325951166451e-05,0.0006391119095496833,-0.2997679114341736,-0.0008114874362945557,-9.808137893676758
984077724000,-0.0002457610098645091,-0.0010618820087984204,-0.0023153529036790133,-0.3278428912162781,0.048850804567337036,-9.78878402709961
984084693000,-0.000762437004595995,-2.823991235345602e-05,8.70265739649767e-06,-0.27407461404800415,-0.03232235461473465,-9.813921928405762
984098628000,0.0006534647545777261,0.00019832735415548086,0.0008401238592341542,-0.29774579405784607,-0.006062403321266174,-9.808497428894043
984105498000,0.0004338076105341315,0.00013559864601120353,0.0007032500579953194,-0.3004075288772583,0.003449082374572754,-9.808972358703613
984112418000,-0.0007013471913523972,-0.0007117444765754044,-0.002684517065063119,-0.3300319314002991,0.05910108983516693,-9.789981842041016
984119383000,-0.0008413349278271198,-0.0001256581163033843,0.0001337141584372148,-0.2731112837791443,-0.042830124497413635,-9.81245231628418
984133263000,0.0004043840162921697,0.00033930898644030094,0.0006343941204249859,-0.29936128854751587,-0.002113550901412964,-9.808679580688477
984140217000,0.0003663773532025516,0.00014397286577150226,0.0006528452504426241,-0.30007851123809814,-0.00023134052753448486,-9.808330535888672
984147131000,0.0001450720155844465,3.594088775571436e-05,0.00045523804146796465,-0.3010362982749939,0.004428967833518982,-9.808570861816406
984154145000,-0.0005586614133790135,-0.0009727048454806209,-0.0025517737958580256,-0.32824134826660156,0.050218015909194946,-9.788625717163086
984168065000,0.0003456082195043564,0.00040031064418144524,0.0004848498210776597,-0.29328179359436035,-0.015604943037033081,-9.805553436279297
984174915000,0.0004194387001916766,0.00030581734608858824,0.0006261250237002969,-0.2986889183521271,-0.0028359293937683105,-9.80868911743164
984181877000,0.0003421289729885757,0.00014032777107786387,0.0006546775694005191,-0.29977792501449585,-0.00017051398754119873,-9.80826473236084
984188889000,0.0001484196982346475,3.8088124711066484e-05,0.0004554146435111761,-0.30094003677368164,0.004298582673072815,-9.808236122131348
984195766000,-0.0005621761665679514,-0.000950950721744448,-0.002547882031649351,-0.3280186355113983,0.05019634962081909,-9.788586616516113
984209631000,0.0009621547069400549,0.0011113487416878343,-0.0020170847419649363,-0.2926461696624756,0.07717941701412201,-9.79975700378418
984216637000,-0.0007213757489807904,0.001207729452289641,0.0003072910476475954,-0.27938300371170044,-0.026033170521259308,-9.820267677307129
984223548000,0.00028835784178227186,0.0014200159348547459,0.000551144068595022,-0.2966114580631256,-0.00982595980167389,-9.812796592712402
984230475000,0.00038123445119708776,0.0009861360304057598,0.0006273439503274858,-0.30143237113952637,-0.0019073486328125,-9.811901092529297
984237476000,0.00033765961416065693,0.0005380703369155526,0.000645786989480257,-0.3018505275249481,-0.00020635128021240234,-9.812129020690918
984251617000,-0.0003899730509147048,-0.000980814453214407,-0.0024710458237677813,-0.3307355046272278,0.05657462775707245,-9.792573928833008
