sim_time_ns,gyro_x,gyro_y,gyro_z,accel_x,accel_y,accel_z
35306408000,-0.0014996436657384038,-0.0007247069734148681,-0.0006072147516533732,1.1445204019546509,0.004159867763519287,-9.742706298828125
35313321000,-0.0014036227948963642,-0.0009109481470659375,-0.0003522228798829019,1.1452393531799316,-0.004920780658721924,-9.741229057312012
35320209000,-0.00043414582614786923,2.284068614244461e-05,0.0027202628552913666,1.1750080585479736,-0.05302971601486206,-9.762237548828125
35327173000,-6.29425048828125e-05,-0.0005624145269393921,0.00013183367263991386,1.1202795505523682,0.037165701389312744,-9.730074882507324
35341019000,-0.0014125965535640717,-0.0006260208319872618,-0.00042072011274285614,1.1446728706359863,0.0017664432525634766,-9.742843627929688
35347995000,-0.0015576186124235392,-0.000545766088180244,-0.0006161453202366829,1.1442286968231201,0.004024088382720947,-9.743905067443848
35354941000,-0.001424546237103641,-0.0007887613610364497,-0.000360466365236789,1.1449545621871948,-0.00513845682144165,-9.742450714111328
35361913000,-0.0012210765853524208,-0.0006404182640835643,-0.0004014358564745635,1.1460940837860107,-0.0005322098731994629,-9.745020866394043
35375798000,-8.362298831343651e-05,-0.000582227308768779,0.0001292755187023431,1.1200153827667236,0.03703904151916504,-9.730762481689453
35382696000,-0.0014916900545358658,-0.0005751235294155777,-0.0005348994745872915,1.1412475109100342,0.018913984298706055,-9.7355318069458
35389695000,-0.0013808025978505611,-0.0009206294780597091,-0.00025767902843654156,1.1452010869979858,-0.005475044250488281,-9.741715431213379
35396600000,-0.0012007271870970726,-0.0006355894729495049,-0.0004017224709969014,1.1458830833435059,0.0013578534126281738,-9.745266914367676
35410523000,-0.001282144570723176,-0.0007022154168225825,-0.0004121338133700192,1.1449520587921143,-0.00010061264038085938,-9.74294376373291
35417407000,-0.000464325537905097,4.049271228723228e-05,0.0027100418228656054,1.1738700866699219,-0.0530208945274353,-9.761570930480957
35424433000,-0.00025350195937789977,-0.0004763188771903515,-6.368738104356453e-05,1.1194535493850708,0.04121661186218262,-9.731171607971191
35431325000,-0.001425967668183148,-0.0008015494095161557,-0.00037823006277903914,1.141772747039795,0.01163947582244873,-9.735124588012695
35438281000,-0.0014344218652695417,-0.0007946924306452274,-0.00043023726902902126,1.1450352668762207,0.0008012652397155762,-9.743175506591797
35452141000,-0.0012794840149581432,-0.0007216455414891243,-0.0004123487451579422,1.1453759670257568,-0.000514686107635498,-9.743219375610352
35459141000,-0.0012801623670384288,-0.0007140458328649402,-0.0004110257141292095,1.1452221870422363,-0.00010561943054199219,-9.742886543273926
35466094000,-0.0012704712571576238,-0.000699666969012469,-0.0004063411906827241,1.1452548503875732,-0.00022965669631958008,-9.74291706085205
35473085000,-0.0004713977104984224,4.878290928900242e-05,0.0027102939784526825,1.1739134788513184,-0.05283075571060181,-9.761293411254883
35488347000,-0.0016099622007459402,-0.0008983082370832562,-0.00014851658488623798,1.1503971815109253,-0.0123177170753479,-9.752888679504395
35495328000,0.00023630868236068636,-0.00019002672343049198,-0.00021554120758082718,1.1482880115509033,-0.009980857372283936,-9.750980377197266
35502202000,-0.0007848612731322646,-0.0004553264006972313,-0.00034269774914719164,1.1435763835906982,0.007748901844024658,-9.736719131469727
35509240000,-0.0010500624775886536,-0.000756909663323313,-0.00019772761152125895,1.1444716453552246,-0.0012044906616210938,-9.739937782287598
35523104000,-0.0012331348843872547,-0.0008087065070867538,-0.000238669992540963,1.1457009315490723,-0.006507217884063721,-9.74130630493164
35530016000,-0.0005761656211689115,0.00023808781406842172,0.002553909085690975,1.1734809875488281,-0.046529412269592285,-9.762896537780762
35536925000,-0.00021979206940159202,-0.0005917238886468112,0.00010680173727450892,1.119873046875,0.03484386205673218,-9.729569435119629
35543935000,-0.0012849076883867383,-0.0006220174836926162,-0.0003426963521633297,1.1426358222961426,0.013370871543884277,-9.736381530761719
35550826000,-0.0014557952526956797,-0.0007150102173909545,-0.0004172538756392896,1.1443877220153809,0.002021968364715576,-9.742535591125488
35564728000,-0.0012247671838849783,-0.0008549392805434763,-0.0002498176763765514,1.1459877490997314,-0.007940709590911865,-9.74239730834961
35571658000,-0.0011537628015503287,-0.0006377120735123754,-0.0003795784432440996,1.1454596519470215,0.0017158985137939453,-9.744386672973633
35578677000,-0.00045681255869567394,4.913698649033904e-05,0.0027220076881349087,1.1735939979553223,-0.05200767517089844,-9.761022567749023
35585541000,-0.00024677306646481156,-0.0005312154535204172,2.6821213396033272e-05,1.1193019151687622,0.03987932205200195,-9.730462074279785
35599446000,-0.0014808999840170145,-0.0005432757898233831,-0.0005829606670886278,1.1441092491149902,0.008706212043762207,-9.743664741516113
35606424000,-0.0014344295486807823,-0.0008038579835556448,-0.0003619635244831443,1.144866943359375,-0.004090368747711182,-9.741822242736816
35613380000,-0.0012810544576495886,-0.0006813399959355593,-0.0003995644801761955,1.1459728479385376,-0.0003293752670288086,-9.74423599243164
35620274000,-0.0012823720462620258,-0.0006861377041786909,-0.000402663805289194,1.1452136039733887,-3.8564205169677734e-05,-9.743103981018066
35627307000,-0.0004963534884154797,4.297983832657337e-05,0.0027131689712405205,1.1738829612731934,-0.0527462363243103,-9.761397361755371
35641229000,-0.0011515936348587275,-0.0008072191849350929,-0.00016617287474218756,1.1433287858963013,0.008178532123565674,-9.7355318069458
35648076000,-0.0014860797673463821,-0.0005548085900954902,-0.00058167235692963,1.144116997718811,0.008800387382507324,-9.743661880493164
35655003000,-0.0012901611626148224,-0.0008601426379755139,-0.0002486958692315966,1.1457529067993164,-0.006842255592346191,-9.74169635772705
35661991000,-0.0011478805681690574,-0.0005796659970656037,-0.0003909927327185869,1.1459720134735107,0.0015344619750976562,-9.744868278503418
35668879000,-0.0012773111229762435,-0.000650821952149272,-0.0004037530452478677,1.144758701324463,0.0008409023284912109,-9.742365837097168
35682794000,-0.00028540060156956315,-0.00045583254541270435,-5.716697341995314e-05,1.1194161176681519,0.04132741689682007,-9.730984687805176
35689717000,-0.0013932767324149609,-0.0007624412537552416,-0.00037740441621281207,1.1421401500701904,0.011377155780792236,-9.736108779907227
35696697000,-0.0014192067319527268,-0.0007717022090218961,-0.00042385750566609204,1.1450598239898682,0.0007993578910827637,-9.743072509765625
35703618000,-0.0013212135527282953,-0.0007314993999898434,-0.0004213595238979906,1.1455501317977905,-0.0006928443908691406,-9.743498802185059
35717527000,-0.0012743109837174416,-0.0007026478415355086,-0.0004029987030662596,1.145462989807129,-0.00029283761978149414,-9.743019104003906
35724515000,-0.00045407097786664963,5.250467802397907e-05,0.0027152206748723984,1.174084186553955,-0.05298280715942383,-9.761368751525879
35731455000,-0.0002604299515951425,-0.00046618105261586607,-5.4040938266552985e-05,1.1196019649505615,0.041226863861083984,-9.730876922607422
35738363000,-0.0014408037532120943,-0.000799530535005033,-0.0003711544268298894,1.1418792009353638,0.011715710163116455,-9.735095977783203
35745378000,-0.0014341867063194513,-0.0007757206331007183,-0.00042432310874573886,1.1453081369400024,0.0007255673408508301,-9.743146896362305
35759229000,-0.001306663965806365,-0.0007094020256772637,-0.00040603106026537716,1.1454646587371826,-0.000362396240234375,-9.742995262145996
35766127000,-0.0012668269919231534,-0.0006810727645643055,-0.00040533184073865414,1.145517110824585,-0.0003390312194824219,-9.743087768554688
35773056000,-0.00047273992095142603,6.082514300942421e-05,0.002712496090680361,1.1740531921386719,-0.05282580852508545,-9.761256217956543
35780017000,-0.00028703472344204783,-0.0004623881250154227,-5.847526335855946e-05,1.1196115016937256,0.041302263736724854,-9.730879783630371
35786928000,-0.0014376342296600342,-0.0008002752438187599,-0.0003655743203125894,1.1419168710708618,0.011381447315216064,-9.735400199890137
35800835000,-0.0013400231255218387,-0.000728183367755264,-0.00041296001290902495,1.1457172632217407,-0.0006864070892333984,-9.743419647216797
35807814000,-0.0013066813116893172,-0.0007086255354806781,-0.00041009008418768644,1.1454970836639404,-0.00033974647521972656,-9.743047714233398
35814740000,-0.0012770871398970485,-0.0006854190723970532,-0.0004051071300636977,1.1455620527267456,-0.00034677982330322266,-9.743051528930664
35821705000,-0.0004703311715275049,5.933453212492168e-05,0.002717677503824234,1.1741074323654175,-0.05297958850860596,-9.761287689208984
35835538000,-0.0014038884546607733,-0.0007621661643497646,-0.00037315208464860916,1.1422791481018066,0.011363506317138672,-9.735796928405762
35842585000,-0.0014059841632843018,-0.0007566532585769892,-0.0004215447697788477,1.145256519317627,0.0006891489028930664,-9.743085861206055
35849473000,-0.0013359091244637966,-0.000728362996596843,-0.00041476954356767237,1.1455941200256348,-0.0006040334701538086,-9.74325942993164
35856418000,-0.001286823651753366,-0.0007013000431470573,-0.00040744917350821197,1.1456143856048584,-0.000498354434967041,-9.743163108825684
35863405000,-0.0012774968054145575,-0.000690812652464956,-0.0004054600722156465,1.1454803943634033,-0.00018733739852905273,-9.742900848388672
35877345000,-0.00080471346154809,-0.002385189291089773,0.006243415176868439,1.1550642251968384,-0.10960239171981812,-9.731271743774414
35884277000,0.0015699313953518867,0.0015222129877656698,0.000446696620201692,1.1535751819610596,0.07933473587036133,-9.754125595092773
35891228000,-0.001545037142932415,0.0004507804987952113,-0.0003315448120702058,1.1341378688812256,0.030364394187927246,-9.723771095275879
35898188000,-0.001648091129027307,0.00016529520507901907,-0.0004546641721390188,1.142791509628296,0.0024767518043518066,-9.746138572692871
35905088000,-0.0014099925756454468,-1.236132811754942e-05,-0.0004571600875351578,1.1441349983215332,-0.001369178295135498,-9.748648643493652
35919025000,-0.0014914122875779867,-0.0004540046211332083,-0.0006258576759137213,1.1428155899047852,0.004078328609466553,-9.747447967529297
35926045000,-0.0012322331313043833,-0.0009468118078075349,-0.00025598681531846523,1.144474744796753,-0.00778961181640625,-9.744874954223633
35932882000,-0.001161281717941165,-0.0008531129569746554,-0.0003885026089847088,1.1445341110229492,0.001782834529876709,-9.746337890625
35939909000,-0.00046413345262408257,-0.0002365821273997426,0.0027078387793153524,1.1729543209075928,-0.051885008811950684,-9.762131690979004
35953715000,-0.0013427739031612873,-0.0009632022120058537,-0.0002861346583813429,1.1426970958709717,0.011185646057128906,-9.733377456665039
35960690000,-0.0011611140798777342,-0.0008925312431529164,-0.00022911788255441934,1.1464407444000244,-0.002178966999053955,-9.742252349853516
35967628000,-0.001385949901305139,-0.000549967575352639,-0.0005919869872741401,1.1446232795715332,0.007333934307098389,-9.743387222290039
35974612000,-0.0014570248313248158,-0.0008039560634642839,-0.0004478367045521736,1.1445212364196777,-0.002142488956451416,-9.741572380065918
35988456000,-0.0012566226068884134,-0.000704130798112601,-0.00040858719148673117,1.1453055143356323,-0.000541388988494873,-9.743302345275879
35995505000,-0.00045384015538729727,3.7717982195317745e-05,0.0027108779177069664,1.1737658977508545,-0.05289202928543091,-9.761362075805664
36002308000,-0.00025755600654520094,-0.0004753342946060002,-6.557597953360528e-05,1.1194024085998535,0.04135024547576904,-9.731062889099121
36009350000,-0.0014287906233221292,-0.0007919228519313037,-0.0003789668553508818,1.141723871231079,0.01160818338394165,-9.734922409057617
36016318000,-0.0014337801840156317,-0.0007822652696631849,-0.0004315976402722299,1.1449780464172363,0.0007930397987365723,-9.7432222366333
36030154000,-0.0012935703853145242,-0.0007211047341115773,-0.00041340466123074293,1.145258903503418,-0.00040078163146972656,-9.74319839477539
36037020000,-0.0012829193146899343,-0.0007121972157619894,-0.0004119653603993356,1.1451473236083984,-0.00017386674880981445,-9.742990493774414
36044080000,-0.0004736761038657278,3.8081896491348743e-05,0.0027086057234555483,1.1738898754119873,-0.05294334888458252,-9.761430740356445
36050895000,-0.00026335284928791225,-0.00047619667020626366,-6.081213359721005e-05,1.119429111480713,0.04114532470703125,-9.731047630310059
36064765000,-0.0014468629378825426,-0.0007912603323347867,-0.00043021683814004064,1.144970417022705,0.0009251832962036133,-9.743043899536133
36071750000,-0.0013289563357830048,-0.0007359227165579796,-0.00042196668800897896,1.1455202102661133,-0.000885009765625,-9.74362564086914
36078761000,-0.0013005353976041079,-0.0007200577529147267,-0.00041439468623138964,1.145277976989746,-0.0003730654716491699,-9.743122100830078
36085660000,-0.0012617851607501507,-0.0006966153741814196,-0.00041276245610788465,1.145286202430725,-0.00034046173095703125,-9.743124961853027
36099516000,-0.00026983761927112937,-0.0004731547087430954,-6.129434768809006e-05,1.1194514036178589,0.041230618953704834,-9.730986595153809
36106493000,-0.0014261961914598942,-0.0007951086154207587,-0.0003787093155551702,1.1417981386184692,0.011590838432312012,-9.73525619506836
36113502000,-0.0014260518364608288,-0.0007850059773772955,-0.00042472072527743876,1.145063042640686,0.0006505846977233887,-9.743111610412598
36120339000,-0.0013396445428952575,-0.00073898711707443,-0.00042052497155964375,1.1455247402191162,-0.0006353855133056641,-9.743465423583984
36127311000,-0.001297196140512824,-0.0007125767879188061,-0.0004149537708144635,1.145387053489685,-0.0004202127456665039,-9.743193626403809
36141309000,-0.0003611291467677802,-9.698313806438819e-05,0.0028821213636547327,1.175102710723877,-0.05933123826980591,-9.760883331298828
36148223000,-0.00014611397637054324,-0.00039957778062671423,-3.7401641748147085e-05,1.1198105812072754,0.043647825717926025,-9.731879234313965
36155255000,-0.0014244253979995847,-0.0007486460963264108,-0.000369280984159559,1.1416022777557373,0.01247793436050415,-9.734301567077637
36162163000,-0.0014253545086830854,-0.0007417019223794341,-0.00042453641071915627,1.145054817199707,0.0008050799369812012,-9.743182182312012
36169045000,-0.0013755057007074356,-0.0007239546976052225,-0.00042276177555322647,1.145357608795166,-0.00039196014404296875,-9.74332046508789
36182939000,-0.0011955627705901861,-0.0008469029562547803,-0.00023619658895768225,1.1464247703552246,-0.006597638130187988,-9.742514610290527
36189899000,-0.001346723991446197,-0.0005360799259506166,-0.0005707747768610716,1.144702434539795,0.006428241729736328,-9.744535446166992
36196833000,-0.00040506315417587757,-0.00010376365389674902,0.002873881021514535,1.1743240356445312,-0.05920124053955078,-9.759843826293945
36203771000,-0.000321134808473289,-0.00036903677391819656,-0.00013995332119520754,1.118985652923584,0.04599010944366455,-9.732073783874512
36217616000,-0.0014431837480515242,-0.0008186670602299273,-0.0004263856098987162,1.14540696144104,0.0002377033233642578,-9.743364334106445
36224747000,-0.0013354530092328787,-0.0007570387679152191,-0.00042089802445843816,1.1457085609436035,-0.0007842183113098145,-9.743504524230957
36231602000,-0.0014581989962607622,-0.0006861109286546707,-0.0005260918405838311,1.1445995569229126,0.002398550510406494,-9.743072509765625
36238475000,-0.0011490104952827096,-0.0008484903373755515,-0.00023301327018998563,1.1466238498687744,-0.006807982921600342,-9.742440223693848
36252369000,-0.0001873765722848475,-0.0006242177914828062,0.00010563380783423781,1.119970679283142,0.03482741117477417,-9.729287147521973
36259344000,-0.0012681718217208982,-0.0006231555598787963,-0.0003479744482319802,1.142852783203125,0.013522684574127197,-9.735710144042969
36266238000,-0.0014172818046063185,-0.0006954718264751136,-0.0004184543213341385,1.144608497619629,0.0018323063850402832,-9.742501258850098
36273159000,-0.0013490268029272556,-0.0006821623537689447,-0.0004149109299760312,1.1453337669372559,-0.0005514025688171387,-9.74341106414795
36280079000,-0.0015050664078444242,-0.0005934668006375432,-0.0006046288763172925,1.1445319652557373,0.003989577293395996,-9.74374771118164
36293998000,-0.0005431564059108496,0.0001941802038345486,0.0025498655159026384,1.173694133758545,-0.04674673080444336,-9.763309478759766
36300884000,-0.0001810438116081059,-0.0006330706528387964,0.00010750709043350071,1.1200387477874756,0.03473848104476929,-9.72965145111084
36307883000,-0.001276462571695447,-0.0006594208534806967,-0.0003469678049441427,1.1427338123321533,0.013622939586639404,-9.735978126525879
36314828000,-0.0014239511219784617,-0.0007326315389946103,-0.0004186078440397978,1.1446328163146973,0.0018416047096252441,-9.742574691772461
36328707000,-0.0012335898354649544,-0.0008775864262133837,-0.00024973921244964004,1.1462719440460205,-0.007863640785217285,-9.742314338684082
36335704000,-0.0011647306382656097,-0.0006470958469435573,-0.0003816235112026334,1.1456520557403564,0.0017647147178649902,-9.744234085083008
36342776000,-0.0004647758323699236,4.9139634938910604e-05,0.0027199219912290573,1.1735551357269287,-0.05167645215988159,-9.760770797729492
36349611000,-0.00022775394609197974,-0.0005167665658518672,2.0772138668689877e-05,1.1194370985031128,0.039780497550964355,-9.73046875
36363503000,-0.001520746503956616,-0.0005437405779957771,-0.0005829540896229446,1.144090175628662,0.008867800235748291,-9.743395805358887
36370375000,-0.0014463327825069427,-0.0007878800970502198,-0.0003632624284364283,1.145108699798584,-0.004227995872497559,-9.742050170898438
36377368000,-0.0012436357792466879,-0.0006361410487443209,-0.00040553961298428476,1.1462929248809814,-0.0005248785018920898,-9.744699478149414
36384279000,-0.0012716412311419845,-0.0006667092675343156,-0.00040657338104210794,1.1451377868652344,7.539987564086914e-05,-9.743003845214844
36398188000,-0.00024310231674462557,-0.0005234379204921424,2.394132752669975e-05,1.1194648742675781,0.039552390575408936,-9.730645179748535
36405139000,-0.0011565182358026505,-0.0008110019261948764,-0.00016908871475607157,1.1434426307678223,0.008139848709106445,-9.73554801940918
36412079000,-0.0014922079863026738,-0.0005640146555379033,-0.0005836490890942514,1.1441380977630615,0.008785545825958252,-9.743593215942383
36419020000,-0.001435089623555541,-0.0008147354237735271,-0.00036248331889510155,1.145085334777832,-0.004153847694396973,-9.7418794631958
36432911000,-0.0012868314515799284,-0.0006913808174431324,-0.0004054326855111867,1.1453551054000854,-8.410215377807617e-05,-9.743045806884766
36439890000,-0.0012883173767477274,-0.0006944617489352822,-0.0004045040695928037,1.1453094482421875,-0.00011801719665527344,-9.742939949035645
36446781000,-0.00048159778816625476,4.8908579628914595e-05,0.0027202656492590904,1.1741122007369995,-0.05301034450531006,-9.761421203613281
36453700000,-0.0002878738159779459,-0.0004747247730847448,-5.330010026227683e-05,1.1196324825286865,0.04129058122634888,-9.73098373413086
36460728000,-0.001344338757917285,-0.0008100130944512784,-0.00028957752510905266,1.1421667337417603,0.009668111801147461,-9.735456466674805
36474565000,-0.001340182963758707,-0.0007246311870403588,-0.00041595776565372944,1.1454663276672363,-0.0002300739288330078,-9.743114471435547
36481479000,-0.0012884761672466993,-0.0006984939100220799,-0.0004091093724127859,1.1455565690994263,-0.0005120038986206055,-9.743142127990723
36488430000,-0.0012876112014055252,-0.0006911925738677382,-0.0004076424229424447,1.1454370021820068,-0.00013083219528198242,-9.742881774902344
36495445000,-0.0008062303531914949,-0.002392314374446869,0.006240640301257372,1.154970407485962,-0.1096564531326294,-9.731226921081543
36502327000,0.0017560194246470928,0.001423817710019648,0.0006330865435302258,1.1543492078781128,0.0750356912612915,-9.75347900390625
36516208000,-0.0015655466122552752,0.0001048428239300847,-0.00029313977574929595,1.1432905197143555,-0.003808140754699707,-9.745038032531738
36523177000,-0.0012901296140626073,0.00010634353384375572,-0.00042726934771053493,1.14396333694458,0.0006474852561950684,-9.749860763549805
36530164000,-0.001329620135948062,-0.00023985898587852716,-0.00043689279118552804,1.1429333686828613,0.00031375885009765625,-9.747414588928223
36537042000,-0.0013202164554968476,-0.0005281803896650672,-0.00043034821283072233,1.143280029296875,-0.00023853778839111328,-9.747101783752441
36550934000,-0.0012812409549951553,-0.0009005831670947373,-0.00042381579987704754,1.143953800201416,-0.0001099705696105957,-9.745301246643066
36557923000,-0.0004637083038687706,-0.00025094766169786453,0.002698808442801237,1.173154592514038,-0.05301779508590698,-9.762903213500977
36564841000,-0.0002472758060321212,-0.0007954163593240082,-7.663383439648896e-05,1.1191462278366089,0.041229844093322754,-9.731819152832031
36571765000,-0.001405020710080862,-0.001015490503050387,-0.00038699537981301546,1.1422553062438965,0.0114976167678833,-9.73392105102539
36578801000,-0.0014092880301177502,-0.0009579407633282244,-0.00043713435297831893,1.1451870203018188,0.0007505416870117188,-9.74245548248291
36592630000,-0.0014841716038063169,-0.000758904090616852,-0.0006203160155564547,1.1446244716644287,0.003987133502960205,-9.743103981018066
36599538000,-0.0012347069568932056,-0.000991744571365416,-0.0002536037063691765,1.146082878112793,-0.0076808929443359375,-9.741223335266113
36606530000,-0.0011414566542953253,-0.0006917014252394438,-0.00038878366467542946,1.145810604095459,0.0016959309577941895,-9.743762016296387
36613495000,-0.00047418949543498456,2.0527193555608392e-05,0.002712379675358534,1.173494577407837,-0.051834702491760254,-9.760038375854492
36627363000,-0.001331652281805873,-0.000701115292031318,-0.0002830403682310134,1.1426341533660889,0.010946810245513916,-9.734703063964844
36634271000,-0.0011759308399632573,-0.0007146299467422068,-0.00022918223112355918,1.1460120677947998,-0.001984834671020508,-9.7431001663208
36641298000,-0.0014180820435285568,-0.00046364194713532925,-0.0005890292814001441,1.1440268754959106,0.007364988327026367,-9.74415111541748
36648163000,-0.0014480280224233866,-0.0007019365439191461,-0.00044539791997522116,1.1447199583053589,-0.002357184886932373,-9.742185592651367
36655087000,-0.001304482575505972,-0.0006670624716207385,-0.00041453915764577687,1.1453568935394287,-0.0014169812202453613,-9.743932723999023
36668991000,-0.000288268638541922,-0.0004779485461767763,-6.417514669010416e-05,1.1193400621414185,0.04126942157745361,-9.7314453125
36675972000,-0.001404432812705636,-0.0008080529514700174,-0.0003855630930047482,1.1418229341506958,0.011453568935394287,-9.736406326293945
36682890000,-0.001408483600243926,-0.0008106146124191582,-0.000432048924267292,1.1449148654937744,0.0006826519966125488,-9.743245124816895
36689841000,-0.001309335813857615,-0.0007647779420949519,-0.00043132255086675286,1.1454228162765503,-0.0006560087203979492,-9.743572235107422
36696797000,-0.0013127168640494347,-0.0007762926979921758,-0.000418253883253783,1.1450042724609375,-0.0002961158752441406,-9.742705345153809
36710710000,-0.00047102663666009903,2.097460674121976e-05,0.002707007573917508,1.1740374565124512,-0.0529974102973938,-9.761347770690918
36717668000,-0.00025712826754897833,-0.00047640688717365265,-6.80708690197207e-05,1.1195687055587769,0.04122292995452881,-9.730981826782227
36724598000,-0.0014194329269230366,-0.0007851286209188402,-0.00037762749707326293,1.1419024467468262,0.011500000953674316,-9.735007286071777
36731513000,-0.0014336321037262678,-0.0007760648149996996,-0.00043270247988402843,1.1450086832046509,0.0008779168128967285,-9.743000984191895
36738435000,-0.0013309530913829803,-0.0007263253792189062,-0.0004235860542394221,1.1455113887786865,-0.0008136630058288574,-9.7434720993042
36752376000,-0.0012831396888941526,-0.0006949990638531744,-0.00041437605977989733,1.1452388763427734,-0.00019532442092895508,-9.742969512939453
36759393000,-0.0004770345985889435,5.259716999717057e-05,0.002707800595089793,1.173952341079712,-0.05295264720916748,-9.761388778686523
36766240000,-0.0002720554475672543,-0.00046653792378492653,-6.11733557889238e-05,1.1194674968719482,0.04116523265838623,-9.731006622314453
36773207000,-0.0014270627871155739,-0.0007961511146277189,-0.0003751659533008933,1.1417980194091797,0.011529505252838135,-9.73539924621582
36787055000,-0.001336163841187954,-0.0007330276421271265,-0.00042318119085393846,1.145624041557312,-0.0007150173187255859,-9.743584632873535
36794122000,-0.0012880206340923905,-0.0007076621986925602,-0.0004160249955020845,1.1454023122787476,-0.0004811882972717285,-9.743199348449707
36800946000,-0.0014456049539148808,-0.0006607226678170264,-0.0005250744870863855,1.1443527936935425,0.0026556849479675293,-9.742913246154785
36807936000,-0.0011684981873258948,-0.0008407646673731506,-0.00023442230303771794,1.1464574337005615,-0.006582081317901611,-9.742375373840332
36821780000,-0.00019542186055332422,-0.0006259141955524683,0.00010566453420324251,1.1198408603668213,0.03488892316818237,-9.729297637939453
36828819000,-0.001271886401809752,-0.0006383834406733513,-0.0003480757586658001,1.1427125930786133,0.013500332832336426,-9.735967636108398
36835676000,-0.0014193437527865171,-0.0007090606959536672,-0.00041933939792215824,1.1445560455322266,0.0018367767333984375,-9.742536544799805
36842746000,-0.0013518736232072115,-0.0006922932807356119,-0.0004208557365927845,1.1452999114990234,-0.00046318769454956055,-9.743443489074707
36856523000,-0.0012173560680821538,-0.0008612523088231683,-0.00024847296299412847,1.1460607051849365,-0.0076863765716552734,-9.74219799041748
36863494000,-0.0005533538060262799,0.00018610694678500295,0.002542029367759824,1.1735668182373047,-0.04653000831604004,-9.763145446777344
36870409000,-0.00018373416969552636,-0.000640669371932745,0.00010460011253599077,1.11996328830719,0.03461265563964844,-9.729629516601562
36877371000,-0.0014683254994452,-0.0005707600503228605,-0.0005431047175079584,1.1419730186462402,0.017957627773284912,-9.736427307128906
36884284000,-0.001351961400359869,-0.000910904782358557,-0.000261347449850291,1.1453619003295898,-0.005593359470367432,-9.741591453552246
36898176000,-0.0012851791689172387,-0.000692632223945111,-0.00040637209895066917,1.1450140476226807,0.0005347728729248047,-9.742725372314453
36905110000,-0.0012854860397055745,-0.0006929002120159566,-0.0004078448109794408,1.1452367305755615,-7.665157318115234e-05,-9.742931365966797
36912115000,-0.0004724508908111602,5.6175398640334606e-05,0.0027123778127133846,1.1740541458129883,-0.05296683311462402,-9.761478424072266
36918997000,-0.0002721055643633008,-0.0004690984496846795,-5.581016739597544e-05,1.1195204257965088,0.0411677360534668,-9.730982780456543
36932897000,-0.0014522504061460495,-0.0007850434631109238,-0.0004265241732355207,1.1451084613800049,0.0009163022041320801,-9.743051528930664
36939827000,-0.00133888132404536,-0.0007320900331251323,-0.0004188616294413805,1.1456799507141113,-0.0008569955825805664,-9.743619918823242
36946812000,-0.0013015002477914095,-0.0007143808179534972,-0.0004106670094188303,1.145451545715332,-0.00044459104537963867,-9.74315357208252
36953724000,-0.0012886661570519209,-0.0007064874516800046,-0.0004076281329616904,1.145343542098999,-0.00022643804550170898,-9.742931365966797
36960731000,-0.00046662703971378505,5.229999078437686e-05,0.002712873974815011,1.1741694211959839,-0.05302351713180542,-9.761480331420898
36974595000,-0.001415839185938239,-0.0007833842537365854,-0.0003728879091795534,1.1420435905456543,0.01149606704711914,-9.735358238220215
36981519000,-0.0014610744547098875,-0.0007919835043139756,-0.00042588807991705835,1.1451008319854736,0.0010145306587219238,-9.742866516113281
36988432000,-0.0013327791821211576,-0.000728216371499002,-0.0004184283607173711,1.1457926034927368,-0.0009400844573974609,-9.74364948272705
36995475000,-0.0012845939490944147,-0.0007025827653706074,-0.00041022407822310925,1.145545244216919,-0.0005061626434326172,-9.743173599243164
37002354000,-0.0012925113551318645,-0.0007025205995887518,-0.00040732516208663583,1.1453499794006348,-0.00010353326797485352,-9.742806434631348
37016220000,-0.00027171781403012574,-0.0004641507111955434,-5.655111453961581e-05,1.1196308135986328,0.04116421937942505,-9.730927467346191
37023192000,-0.0014262562617659569,-0.0007904723170213401,-0.0003669961588457227,1.142014503479004,0.011461615562438965,-9.73530101776123
37030140000,-0.001449065050110221,-0.0007880220073275268,-0.0004194196662865579,1.1452076435089111,0.0008763670921325684,-9.74295711517334
37037073000,-0.0013561439700424671,-0.0007363437325693667,-0.00041687945486046374,1.1457786560058594,-0.0006544589996337891,-9.743485450744629
37050941000,-0.0012989266542717814,-0.0007007298991084099,-0.00040800689021125436,1.145420789718628,-0.00011432170867919922,-9.742792129516602
37057940000,-0.000473247142508626,5.5461685406044126e-05,0.0027130732778459787,1.174194097518921,-0.05306041240692139,-9.761414527893066
37064846000,-0.00026862515369430184,-0.0004595915670506656,-5.9620993852149695e-05,1.1197340488433838,0.04121750593185425,-9.73099136352539
37071799000,-0.0014354754239320755,-0.0007914817542769015,-0.0003669392317533493,1.142064094543457,0.011485159397125244,-9.735281944274902
37078773000,-0.0014562569558620453,-0.00078858423512429,-0.00041924449033103883,1.1452583074569702,0.0008613467216491699,-9.74296760559082
37092640000,-0.0012952882098034024,-0.0007068687118589878,-0.0004088495043106377,1.1456105709075928,-0.0005764961242675781,-9.743127822875977
37099567000,-0.0014652988174930215,-0.0006662417436018586,-0.0005117381806485355,1.1445773839950562,0.002619326114654541,-9.742801666259766
37106513000,-0.0015047036577016115,-0.0032802915666252375,0.0033043758012354374,1.1275135278701782,-0.06326556205749512,-9.71235179901123
37113473000,0.001639051828533411,0.004337070509791374,-0.00014064623974263668,1.225503921508789,0.04421114921569824,-9.815441131591797
37120395000,-0.0023285532370209694,-0.0006964122876524925,-0.0006986677180975676,1.0823103189468384,0.02680101990699768,-9.693290710449219
37134329000,-0.0012986212968826294,-0.0007740805158391595,-0.00042685162043198943,1.1454553604125977,-0.0028917789459228516,-9.747037887573242
37141290000,-0.0012352048652246594,-0.0008642826578579843,-0.0004142941324971616,1.144953727722168,-0.0006580352783203125,-9.745015144348145
37148219000,-0.0014316006563603878,-0.0009120026952587068,-0.0005192079115658998,1.1439813375473022,0.0027976632118225098,-9.743613243103027
37155099000,-0.0011681856121867895,-0.0011212502140551805,-0.0002279870823258534,1.1464810371398926,-0.006521821022033691,-9.742597579956055
37169006000,0.0014765661908313632,0.00130593276116997,0.000408780702855438,1.1537572145462036,0.07734918594360352,-9.751490592956543
37176057000,-0.0015426502795889974,0.0003799695987254381,-0.0003319633542560041,1.1352343559265137,0.02919769287109375,-9.722501754760742
37182913000,-0.0016494537703692913,0.00011436326894909143,-0.0004577337531372905,1.1429636478424072,0.0025486350059509277,-9.74597454071045
37189852000,-0.0014353024307638407,-7.613177876919508e-05,-0.0004500350041780621,1.1440188884735107,-0.0014137029647827148,-9.748082160949707
37196834000,-0.001328829675912857,-0.000316229066811502,-0.00043858273420482874,1.1437063217163086,-0.0008647441864013672,-9.747631072998047
37210726000,-0.0012372510973364115,-0.0009540520259179175,-0.0002607913629617542,1.1445090770721436,-0.007612764835357666,-9.7446870803833
37217647000,-0.0011590037029236555,-0.0008490302716381848,-0.0003915298730134964,1.1446845531463623,0.0017195940017700195,-9.74637222290039
37224635000,-0.0004736468254122883,-0.00024438780383206904,0.00270746648311615,1.17289137840271,-0.05189049243927002,-9.761972427368164
37231515000,-0.0002595614059828222,-0.0007533911848440766,-6.661775114480406e-05,1.1194000244140625,0.041217029094696045,-9.731232643127441
37245505000,-0.0014523897552862763,-0.000934797280933708,-0.0004313726385589689,1.1450347900390625,0.0009106993675231934,-9.742345809936523
37252360000,-0.0013642794219776988,-0.0008873477927409112,-0.0004240515409037471,1.1453962326049805,-0.0007006525993347168,-9.743195533752441
37259361000,-0.0012853849912062287,-0.0008095988887362182,-0.00042284897062927485,1.145717740058899,-0.0005348324775695801,-9.74327564239502
37266231000,-0.0012863154988735914,-0.0007963367970660329,-0.00041566291474737227,1.1451287269592285,-0.0002110600471496582,-9.742403030395508
37273173000,-0.0013267805334180593,-0.0007920440402813256,-0.000406173785449937,1.1451059579849243,-2.574920654296875e-05,-9.74217414855957
37287070000,-0.0002598995342850685,-0.0004773300897795707,-6.313429912552238e-05,1.1196868419647217,0.041001200675964355,-9.73095989227295
37294078000,-0.0014418589416891336,-0.0007680751732550561,-0.0003759703831747174,1.1420397758483887,0.01166069507598877,-9.734636306762695
37300973000,-0.0014449188020080328,-0.0007620531250722706,-0.00042383212712593377,1.1450088024139404,0.0006971955299377441,-9.743090629577637
37307920000,-0.001371357822790742,-0.0007313188980333507,-0.000422455370426178,1.145389199256897,-0.0005208849906921387,-9.743427276611328
37314914000,-0.0013073626905679703,-0.0007041100761853158,-0.00041689450154080987,1.1453802585601807,-0.0005439519882202148,-9.743417739868164
37328774000,-0.0006512441323138773,7.201655535027385e-05,0.002601121785119176,1.17296302318573,-0.05016767978668213,-9.761463165283203
37335693000,-0.0001752020907588303,-0.000640256330370903,0.0001141406683018431,1.12070631980896,0.03484797477722168,-9.73062515258789
37342768000,-0.0012567999074235559,-0.0006565765361301601,-0.0003489145601633936,1.1426851749420166,0.013691484928131104,-9.736166954040527
37349605000,-0.0014304050710052252,-0.0007482582004740834,-0.0004253630177117884,1.1443588733673096,0.002066373825073242,-9.74242877960205
37356565000,-0.0013572433963418007,-0.0007272895309142768,-0.00042155670234933496,1.1453595161437988,-0.0005677938461303711,-9.743560791015625
37370422000,-0.0014860983937978745,-0.000629622838459909,-0.0006059377337805927,1.1444666385650635,0.004132270812988281,-9.743598937988281
37377391000,-0.00125644460786134,-0.0009282060782425106,-0.00023675493139307946,1.1457858085632324,-0.007631361484527588,-9.741646766662598
37384333000,-0.0005693507264368236,0.0001425696536898613,0.0025534655433148146,1.1737028360366821,-0.046653687953948975,-9.76314926147461
37391325000,-0.00019909051479771733,-0.0006676064804196358,0.00010932211444014683,1.1200714111328125,0.034725964069366455,-9.729601860046387
37398225000,-0.0014665480703115463,-0.0006531954859383404,-0.0004540288937278092,1.1417059898376465,0.016434550285339355,-9.735546112060547
37412187000,-0.0012092941906303167,-0.0006288972799666226,-0.00039510440547019243,1.1458885669708252,0.0019251704216003418,-9.744813919067383
37419037000,-0.0012900722213089466,-0.0006771045154891908,-0.0004092452290933579,1.144869089126587,0.0005864500999450684,-9.742636680603027
37426054000,-0.0013007689267396927,-0.0006858032429590821,-0.0004118303186260164,1.1451776027679443,5.4836273193359375e-06,-9.742965698242188
37432929000,-0.00048694515135139227,5.1321316277608275e-05,0.0027144551277160645,1.1739418506622314,-0.05307489633560181,-9.761502265930176
37439853000,-0.00025015813298523426,-0.0005293071735650301,3.149755502818152e-05,1.1193857192993164,0.039521217346191406,-9.730581283569336
37453744000,-0.0015053641982376575,-0.0005565601168200374,-0.0005861071404069662,1.1440256834030151,0.008974730968475342,-9.743545532226562
37460746000,-0.0012920903973281384,-0.0008604692993685603,-0.000249391479883343,1.145784616470337,-0.00699925422668457,-9.741894721984863
37467636000,-0.001173598924651742,-0.0005984623567201197,-0.0003912848769687116,1.1458618640899658,0.0016645193099975586,-9.744826316833496
37474630000,-0.0012787270825356245,-0.0006663180538453162,-0.0004033678269479424,1.144742488861084,0.0006858706474304199,-9.742512702941895
37488486000,-0.0002909922623075545,-0.00047514267498627305,-5.725764640374109e-05,1.1194045543670654,0.0413128137588501,-9.73104190826416
37495458000,-0.001435291487723589,-0.0008080553961917758,-0.00037084994255565107,1.1419076919555664,0.011461138725280762,-9.735650062561035
37502392000,-0.0014437991194427013,-0.000803672126494348,-0.00042291267891414464,1.1451551914215088,0.0007947087287902832,-9.743181228637695
37509397000,-0.0013576842611655593,-0.00076432985952124,-0.00041496544145047665,1.1456003189086914,-0.0007033348083496094,-9.743474006652832
37523212000,-0.001291820895858109,-0.0007232050411403179,-0.0004056025354657322,1.1453709602355957,-0.00014448165893554688,-9.74289321899414
37530179000,-0.0004676219541579485,3.808425390161574e-05,0.002715045353397727,1.17417573928833,-0.05303734540939331,-9.761441230773926
37537087000,-0.00027222983771935105,-0.000480989197967574,-5.363914533518255e-05,1.119616985321045,0.041208744049072266,-9.7308931350708
37544191000,-0.0014198638964444399,-0.0007961972733028233,-0.00037033791886642575,1.1420209407806396,0.011524677276611328,-9.735289573669434
37550974000,-0.0014504673890769482,-0.0007952341111376882,-0.0004221956478431821,1.145169973373413,0.0009154081344604492,-9.742918014526367
37564914000,-0.0012886050390079618,-0.0007097339257597923,-0.0004116033960599452,1.1455671787261963,-0.0005635619163513184,-9.74323844909668
37571797000,-0.0012987898662686348,-0.0007107739220373333,-0.00040333328070119023,1.1453742980957031,-0.00017434358596801758,-9.742776870727539
37578786000,-0.000479129608720541,4.959135549142957e-05,0.0027119063306599855,1.1741887331008911,-0.052923381328582764,-9.761431694030762
37585695000,-0.0002890415780711919,-0.00047541092499159276,-5.662596959155053e-05,1.119617223739624,0.04123520851135254,-9.730877876281738
37599590000,-0.0014627791242673993,-0.0008016076753847301,-0.0004160055541433394,1.1452455520629883,0.0008121132850646973,-9.742982864379883
37606523000,-0.0013483891962096095,-0.0007398628513328731,-0.0004126593703404069,1.1458353996276855,-0.0007917284965515137,-9.743576049804688
37613545000,-0.0012956868158653378,-0.0007099694339558482,-0.0004104504478164017,1.1455824375152588,-0.00043696165084838867,-9.743176460266113
37620500000,-0.00129249831661582,-0.0007036228780634701,-0.00040322268614545465,1.1454696655273438,-0.0002339482307434082,-9.742875099182129
37627406000,-0.0004889570409432054,4.330635420046747e-05,0.0027177755255252123,1.1741464138031006,-0.052931129932403564,-9.761296272277832
37641290000,-0.0014423115644603968,-0.0008018807857297361,-0.00036395053029991686,1.1420707702636719,0.011451005935668945,-9.735379219055176
37648252000,-0.0014551547355949879,-0.0007935623871162534,-0.0004153603222221136,1.1453050374984741,0.0008055567741394043,-9.74301528930664
37655179000,-0.0013531292788684368,-0.0007378337904810905,-0.0004175069625489414,1.1458117961883545,-0.0006330609321594238,-9.743513107299805
37662276000,-0.0013086041435599327,-0.000717773218639195,-0.00040511085535399616,1.145585060119629,-0.0005573034286499023,-9.743084907531738
37676013000,-0.0017996318638324738,-0.0031089941039681435,0.0030130804516375065,1.1253890991210938,-0.053788840770721436,-9.712686538696289
37682940000,0.0016121682710945606,0.003994406200945377,-6.142305210232735e-06,1.2257424592971802,0.03538292646408081,-9.815515518188477
37689885000,-0.001979139167815447,-0.0007999974768608809,-0.00047909110435284674,1.0841108560562134,0.02340635657310486,-9.694328308105469
37696837000,-0.0013272503856569529,-0.0008170096552930772,-0.00024498411221429706,1.1466715335845947,-0.007758080959320068,-9.746217727661133
37703790000,-0.001193125150166452,-0.0006713852635584772,-0.0003899846924468875,1.1452986001968384,0.0016229748725891113,-9.74658489227295
37717654000,-0.0013082821387797594,-0.0008761910139583051,-0.00039674784056842327,1.1449071168899536,-8.606910705566406e-05,-9.743356704711914
37724589000,-0.0008511636406183243,-0.0026075963396579027,0.006243149749934673,1.1548138856887817,-0.10938447713851929,-9.731400489807129
37731543000,0.0017406268743798137,0.0012926934286952019,0.0006328881718218327,1.1549526453018188,0.07493162155151367,-9.75295352935791
37738462000,-0.0014225959312170744,0.0005551778012886643,-0.00029132061172276735,1.1348332166671753,0.033139050006866455,-9.72230052947998
37752388000,-0.001614526379853487,9.400816634297371e-05,-0.0006524809286929667,1.143028736114502,0.0031089186668395996,-9.74913215637207
37759357000,-0.00146764877717942,-0.00037640659138560295,-0.0004774603876285255,1.1434764862060547,-0.0038498640060424805,-9.747404098510742
37766270000,-0.0012891520746052265,-0.0005862455000169575,-0.0004424024373292923,1.1439433097839355,-0.0016530752182006836,-9.747982025146484
37773246000,-0.001301357289776206,-0.00083205197006464,-0.0004246938624419272,1.1435508728027344,-0.0002993345260620117,-9.745966911315918
37780205000,-0.0013186638243496418,-0.0009971035178750753,-0.0004146930295974016,1.1440181732177734,-0.00015240907669067383,-9.744924545288086
37794189000,-0.0005079255206510425,-0.0003491328679956496,0.00270857778377831,1.1735012531280518,-0.05282771587371826,-9.761550903320312
37801022000,-0.0002511254861019552,-0.0007405183278024197,-6.357082747854292e-05,1.1201664209365845,0.040945351123809814,-9.730216026306152
37807966000,-0.0014198357239365578,-0.0009030645596794784,-0.0003812192881014198,1.1426422595977783,0.011675119400024414,-9.732991218566895
37814918000,-0.0014759034384042025,-0.0008804579265415668,-0.0004261269932612777,1.145003080368042,0.0009519457817077637,-9.742071151733398
37828851000,-0.0012924785260111094,-0.0007523431559093297,-0.00041904422687366605,1.145427942276001,-0.0005054473876953125,-9.743124008178711
37835834000,-0.0013253460638225079,-0.000767711375374347,-0.0004105777479708195,1.1449341773986816,-5.1975250244140625e-05,-9.742366790771484
37842772000,-0.001458386075682938,-0.0006908188224770129,-0.0005175498663447797,1.1444664001464844,0.0024909377098083496,-9.742925643920898
37849648000,-0.00036241201451048255,-0.000107444247987587,0.002885939320549369,1.1751333475112915,-0.05936634540557861,-9.760875701904297
37856695000,-0.0001614973007235676,-0.00039125862531363964,-3.223957901354879e-05,1.119835376739502,0.04370689392089844,-9.731400489807129
37870470000,-0.0014752780552953482,-0.0007537270430475473,-0.0004191766493022442,1.1448172330856323,0.000874936580657959,-9.743168830871582
37877479000,-0.0013821548782289028,-0.0007247270550578833,-0.00042008073069155216,1.1453404426574707,-0.0005961060523986816,-9.743733406066895
37884406000,-0.0015025376342236996,-0.0006196731119416654,-0.0006072161486372352,1.1445395946502686,0.0037583112716674805,-9.744095802307129
37891302000,-0.001248456072062254,-0.000901364313904196,-0.00024409515026491135,1.1459273099899292,-0.007647693157196045,-9.742165565490723
37905170000,-0.00019719108240678906,-0.0006742540281265974,0.00010493260924704373,1.1198921203613281,0.034749507904052734,-9.729681968688965
37912179000,-0.001318305847235024,-0.0007171444012783468,-0.0003436677507124841,1.14241623878479,0.013662219047546387,-9.73552131652832
37919043000,-0.0014466617722064257,-0.0007738505955785513,-0.0004173367051407695,1.1446146965026855,0.0017781257629394531,-9.742715835571289
37926052000,-0.0015547397779300809,-0.0006540277390740812,-0.0006162768695503473,1.1446300745010376,0.003877997398376465,-9.744070053100586
37932950000,-0.0014121509157121181,-0.0008687447407282889,-0.0003589375701267272,1.145281195640564,-0.005213499069213867,-9.742337226867676
37939884000,-0.0012492401292547584,-0.000730017083697021,-0.0004033341829199344,1.1460332870483398,-0.0002650618553161621,-9.744317054748535
37953779000,-8.887849980965257e-05,-0.0006111039547249675,0.00013378882431425154,1.120234489440918,0.037009358406066895,-9.730409622192383
37960784000,-0.0014925568830221891,-0.0005568742053583264,-0.0005330988205969334,1.1416289806365967,0.018929660320281982,-9.7349271774292
37967671000,-0.0013887777458876371,-0.0008984453161247075,-0.0002574617101345211,1.1453273296356201,-0.00541079044342041,-9.741589546203613
37974646000,-0.00122107844799757,-0.0006246682023629546,-0.0003951410762965679,1.1459041833877563,0.0013181567192077637,-9.745088577270508
37988520000,-0.0012974556302651763,-0.0006912345415912569,-0.00041014066664502025,1.1451104879379272,-7.838010787963867e-05,-9.743101119995117
37995589000,-0.0004900708445347846,3.7402031011879444e-05,0.0027132215909659863,1.1738585233688354,-0.05298525094985962,-9.7615327835083
38002422000,-0.00029846502002328634,-0.0004924572422169149,-6.199114432092756e-05,1.1194891929626465,0.04135012626647949,-9.731170654296875
38009422000,-0.0014476169599220157,-0.0008278493187390268,-0.0003710527962539345,1.141845703125,0.011416196823120117,-9.735505104064941
38016298000,-0.0014412904856726527,-0.0008153345552273095,-0.00042242210474796593,1.1451804637908936,0.0007038712501525879,-9.743267059326172
38030261000,-0.0012930831871926785,-0.0007398425368592143,-0.0004159384116064757,1.1454734802246094,-0.00044220685958862305,-9.74322509765625
38037125000,-0.001293647917918861,-0.0007309913053177297,-0.00041047221748158336,1.145372748374939,-0.00017333030700683594,-9.742881774902344
38044146000,-0.0012916694395244122,-0.0007243875879794359,-0.00040401954902336,1.1452723741531372,-0.0002237558364868164,-9.742770195007324
38051011000,-0.0004677329561673105,3.811382339335978e-05,0.002717756200581789,1.1741372346878052,-0.05305439233779907,-9.76138687133789
38057959000,-0.00028242921689525247,-0.0004797936708200723,-5.6731187214609236e-05,1.1195851564407349,0.0413670539855957,-9.730878829956055
38071883000,-0.0014427718706429005,-0.0007909741252660751,-0.00042052267235703766,1.145195484161377,0.0006919503211975098,-9.74308967590332
38078884000,-0.0013514207676053047,-0.0007441533380188048,-0.0004124288388993591,1.145653486251831,-0.0007345676422119141,-9.743454933166504
38085767000,-0.0013022322673350573,-0.0007177158258855343,-0.0004047142283525318,1.145500898361206,-0.0005028843879699707,-9.743182182312012
38092761000,-0.0012990145478397608,-0.0007122631068341434,-0.0004023330402560532,1.1453315019607544,-0.00015723705291748047,-9.742877006530762
38099679000,-0.000495810410939157,3.728820593096316e-05,0.0027175680734217167,1.174107551574707,-0.05290502309799194,-9.761375427246094
38113569000,-0.0014340912457555532,-0.0007963696261867881,-0.0003692982718348503,1.1420807838439941,0.011474251747131348,-9.735416412353516
38120516000,-0.0014534813817590475,-0.0007981516537256539,-0.0004169946478214115,1.1451369524002075,0.0007805228233337402,-9.74298095703125
38127486000,-0.0013644497375935316,-0.0007501976797357202,-0.000412012537708506,1.1457173824310303,-0.0006690025329589844,-9.743488311767578
38134392000,-0.0013118501519784331,-0.0007233142387121916,-0.00040906196227297187,1.1455163955688477,-0.00044906139373779297,-9.743188858032227
38141331000,-0.00130884675309062,-0.0007177125080488622,-0.0004025611560791731,1.1454110145568848,-0.0002205371856689453,-9.742889404296875
38155209000,-0.00021816033404320478,-0.0006628314731642604,0.00011005214037140831,1.1204719543457031,0.0336117148399353,-9.729931831359863
38162182000,-0.001267972751520574,-0.0006735728238709271,-0.0003434309328440577,1.1429247856140137,0.013345420360565186,-9.736347198486328
38169091000,-0.0014206958003342152,-0.0007429958204738796,-0.00041494850302115083,1.1447267532348633,0.001869797706604004,-9.742475509643555
38176104000,-0.0013497767504304647,-0.0007211349438875914,-0.00041248073102906346,1.14548659324646,-0.0005491971969604492,-9.743356704711914
38189918000,-0.001500942511484027,-0.0006196744507178664,-0.0005979565903544426,1.1447148323059082,0.004124045372009277,-9.743559837341309
38196913000,-0.0004141880781389773,-0.00013007513189222664,0.002874420490115881,1.1748610734939575,-0.060479581356048584,-9.760515213012695
38203825000,-0.00015878179692663252,-0.0004281824512872845,-3.122254929621704e-05,1.120164155960083,0.043183207511901855,-9.7322359085083
38210786000,-0.0014425500994548202,-0.0007862921338528395,-0.00035921618109568954,1.141737937927246,0.012475073337554932,-9.734231948852539
38217711000,-0.001443400513380766,-0.0007734766695648432,-0.00041473720921203494,1.1453120708465576,0.0008048415184020996,-9.743173599243164
38231620000,-0.001515279058367014,-0.0006352065829560161,-0.0005973636289127171,1.1448242664337158,0.0037529468536376953,-9.743680953979492
38238539000,-0.0012337724911049008,-0.0008842168026603758,-0.00023910062736831605,1.146411657333374,-0.007734358310699463,-9.742101669311523
38245590000,-0.0008880893001332879,-0.0022779798600822687,0.00606964435428381,1.154717206954956,-0.10321485996246338,-9.732908248901367
38252439000,0.001671584090217948,0.001291072927415371,0.0006025868933647871,1.1536930799484253,0.07275301218032837,-9.75344467163086
38266385000,-0.001664725597947836,0.00018117669969797134,-0.0004494337481446564,1.1423001289367676,0.0037018656730651855,-9.745441436767578
38273272000,-0.0014256619615480304,-2.2009480744600296e-06,-0.00045427249278873205,1.1440870761871338,-0.001338362693786621,-9.74862003326416
38280268000,-0.0015392240602523088,-0.00019636587239801884,-0.0006315993377938867,1.142663598060608,0.003576993942260742,-9.74817943572998
38287156000,-0.0014389660209417343,-0.0006315122591331601,-0.0004651749331969768,1.1436847448349,-0.003441929817199707,-9.746607780456543
38301039000,-0.001281642122194171,-0.0009447323391214013,-0.0004192786291241646,1.14432692527771,-0.00042939186096191406,-9.74543285369873
38307993000,-0.0012631292920559645,-0.0010219678515568376,-0.00041613125358708203,1.1445553302764893,-0.0002447366714477539,-9.744271278381348
38314964000,-0.0005080698756501079,-0.00033631862606853247,0.0027086881455034018,1.173403024673462,-0.0527033805847168,-9.761445999145508
38321868000,-0.0002718021860346198,-0.0007525529945269227,-6.33266317890957e-05,1.1200062036514282,0.04106181859970093,-9.730284690856934
38328857000,-0.0014272399712353945,-0.0009161465568467975,-0.0003814368974417448,1.1426241397857666,0.011606872081756592,-9.733133316040039
38342725000,-0.0013427475932985544,-0.0007979749934747815,-0.0004293409874662757,1.1456477642059326,-0.0007190704345703125,-9.7434720993042
38349680000,-0.0013335878029465675,-0.0007856813608668745,-0.0004135126364417374,1.145185947418213,-0.00040036439895629883,-9.74262809753418
38356628000,-0.0013048057444393635,-0.0007471556309610605,-0.00041205069283023477,1.1453559398651123,-0.0002703666687011719,-9.742833137512207
38363600000,-0.0013029940892010927,-0.0007234744261950254,-0.0004077113699167967,1.1452677249908447,-0.0001709461212158203,-9.742737770080566
38370499000,-0.00047717324923723936,4.6546541852876544e-05,0.0027125640772283077,1.174020767211914,-0.0530322790145874,-9.761370658874512
38384385000,-0.0014469386078417301,-0.0007795149576850235,-0.0003741548571269959,1.1419057846069336,0.011575877666473389,-9.735058784484863
38391317000,-0.0014636560808867216,-0.0007801952888257802,-0.00042582699097692966,1.1449615955352783,0.0008417367935180664,-9.743142127990723
38398292000,-0.0013576206983998418,-0.0007377886213362217,-0.0004215412773191929,1.1454195976257324,-0.0007547140121459961,-9.743621826171875
38405199000,-0.0014975762460380793,-0.0006928720977157354,-0.0005250273970887065,1.1443239450454712,0.0024747252464294434,-9.743160247802734
38419128000,-0.0005531288916245103,0.0001778174191713333,0.002548685995861888,1.1734728813171387,-0.04624718427658081,-9.762975692749023
38426130000,-0.0002028458402492106,-0.0006502617034129798,0.00010510771244298667,1.1198608875274658,0.03483706712722778,-9.729511260986328
38432991000,-0.0013420386239886284,-0.0007015817682258785,-0.000342504121363163,1.1423499584197998,0.013748586177825928,-9.735346794128418
38439917000,-0.0014511686749756336,-0.000749740400351584,-0.00041594632784835994,1.144658088684082,0.0016644597053527832,-9.742805480957031
38446908000,-0.0013818019069731236,-0.0007279961719177663,-0.0004196803492959589,1.1453135013580322,-0.0004253387451171875,-9.743520736694336
38460811000,-0.0014130937634035945,-0.0008558614063076675,-0.00035577485687099397,1.145153522491455,-0.004950463771820068,-9.742175102233887
38467720000,-0.00044327607611194253,1.917872577905655e-05,0.0027205387596040964,1.1747164726257324,-0.053107500076293945,-9.762760162353516
38474679000,-9.227002738043666e-05,-0.0006092254188843071,0.00013227236922830343,1.120166301727295,0.03727865219116211,-9.730463027954102
38481639000,-0.001314900116994977,-0.0006634123856201768,-0.0003381693968549371,1.1422946453094482,0.01459348201751709,-9.734621047973633
38488528000,-0.0014568697661161423,-0.0007299198769032955,-0.00041538593359291553,1.1445791721343994,0.0019012093544006348,-9.74266242980957
38502489000,-0.0012707782443612814,-0.0008881023968569934,-0.0002485036966390908,1.1461259126663208,-0.008014142513275146,-9.742427825927734
38509428000,-0.001193842850625515,-0.0006596402381546795,-0.0003804521693382412,1.1455698013305664,0.0017300248146057129,-9.744414329528809
38516342000,-0.00048652198165655136,3.78775002900511e-05,0.002718353411182761,1.1736913919448853,-0.05201071500778198,-9.761117935180664
38530248000,-0.0014524615835398436,-0.0008169118082150817,-0.0003692465543281287,1.1418828964233398,0.011461436748504639,-9.735281944274902
38537167000,-0.0014646986965090036,-0.0008102617575787008,-0.00042212652624584734,1.1451671123504639,0.0008379817008972168,-9.743185997009277
38544116000,-0.0013436374720185995,-0.0007545677362941206,-0.00042194704292342067,1.1456477642059326,-0.0007763504981994629,-9.743654251098633
38551124000,-0.0013222453417256474,-0.0007422174094244838,-0.0004152196052018553,1.14540433883667,-0.0003197789192199707,-9.743075370788574
38558026000,-0.00129214720800519,-0.0007201734115369618,-0.00041018889169208705,1.1454672813415527,-0.00034117698669433594,-9.743090629577637
38571887000,-0.00048413133481517434,3.2843236112967134e-05,0.002719361800700426,1.174077033996582,-0.05302166938781738,-9.761330604553223
38578852000,-0.00027955914265476167,-0.0004758311260957271,-5.624426557915285e-05,1.1196625232696533,0.041276395320892334,-9.731032371520996
38585769000,-0.0014428023714572191,-0.000802508438937366,-0.00036948907654732466,1.141906499862671,0.01155543327331543,-9.735173225402832
38592728000,-0.001456553116440773,-0.00079421914415434,-0.00042160830344073474,1.1451892852783203,0.0008252263069152832,-9.74306583404541
38606597000,-0.0013016773154959083,-0.0007189684547483921,-0.0004089234280399978,1.1455531120300293,-0.0005245804786682129,-9.743278503417969
38613631000,-0.0012916822452098131,-0.0007083621458150446,-0.0004027898539789021,1.1454195976257324,-0.00025153160095214844,-9.742948532104492
38620507000,-0.0004972359747625887,3.344344440847635e-05,0.002714973408728838,1.174034833908081,-0.05282425880432129,-9.761265754699707
38627529000,-0.0002937553799711168,-0.00048065479495562613,-5.636524292640388e-05,1.119680643081665,0.041184961795806885,-9.731019973754883
38634403000,-0.001445944420993328,-0.0008053078781813383,-0.0003645911638159305,1.1419905424118042,0.011413216590881348,-9.735265731811523
38641388000,-0.0014549985062330961,-0.0007954406901262701,-0.0004150485619902611,1.1452550888061523,0.0007722973823547363,-9.743088722229004
38655217000,-0.0013100644573569298,-0.0007190834730863571,-0.00040942823397926986,1.1456100940704346,-0.0005018115043640137,-9.743258476257324
38662197000,-0.001311320113018155,-0.0007146428106352687,-0.0004030754789710045,1.1454296112060547,-0.00019073486328125,-9.742886543273926
38669104000,-0.0004950498114340007,3.350272891111672e-05,0.002719877054914832,1.1741050481796265,-0.053037047386169434,-9.761332511901855
38676094000,-0.0002884707064367831,-0.0004763048782479018,-5.523524305317551e-05,1.1197524070739746,0.04125326871871948,-9.731058120727539
38689945000,-0.001451903022825718,-0.0007943973178043962,-0.00041495775803923607,1.145289421081543,0.0007226467132568359,-9.743088722229004
38697016000,-0.0013737711124122143,-0.000754247885197401,-0.0004149099113419652,1.1456748247146606,-0.0005336999893188477,-9.743359565734863
38703830000,-0.0013041662750765681,-0.0007158066146075726,-0.0004090447910130024,1.1456831693649292,-0.0005881786346435547,-9.74329948425293
38710817000,-0.0014687955845147371,-0.0006703532999381423,-0.0005141771398484707,1.1445780992507935,0.0026311874389648438,-9.742879867553711
38724686000,-0.0008977231336757541,-0.002263074042275548,0.006072076037526131,1.1546382904052734,-0.10283297300338745,-9.732691764831543
38731646000,0.0015188733814284205,0.0013545280089601874,0.0004992889589630067,1.1528310775756836,0.07537013292312622,-9.753536224365234
38738596000,-0.0015057448763400316,0.00043178501073271036,-0.00031637519714422524,1.1351122856140137,0.03053385019302368,-9.724274635314941
38745566000,-0.0016672122292220592,0.00013036991003900766,-0.00045214040437713265,1.1426433324813843,0.003020167350769043,-9.745765686035156
38752459000,-0.0014104483416303992,-3.167474642395973e-05,-0.00045587855856865644,1.1442108154296875,-0.0014564990997314453,-9.748607635498047
38766391000,-0.001306207850575447,-0.0005485160509124398,-0.00043491474934853613,1.1436419486999512,-0.00024300813674926758,-9.746920585632324
38773278000,-0.0015202845679596066,-0.0006932686665095389,-0.0006178973126225173,1.1428207159042358,0.004222989082336426,-9.746170043945312
38780259000,-0.0012678976636379957,-0.0011209576623514295,-0.00024817639496177435,1.1448101997375488,-0.007752895355224609,-9.74381160736084
38787159000,-0.00038759622839279473,-0.00021779886446893215,0.0027373209595680237,1.1738159656524658,-0.05102682113647461,-9.763914108276367
38801060000,-0.0012080685701221228,-0.0010150966700166464,-0.0001699737913440913,1.14349365234375,0.00842362642288208,-9.733339309692383
38807991000,-0.0015027821063995361,-0.0006171169225126505,-0.0005965957534499466,1.144798755645752,0.008784830570220947,-9.742507934570312
38815034000,-0.001505041029304266,-0.0009137155720964074,-0.0003683603135868907,1.1444201469421387,-0.003924846649169922,-9.741446495056152
38821888000,-0.001300611300393939,-0.000750140578020364,-0.00040957093005999923,1.1460802555084229,-0.0005372762680053711,-9.744523048400879
38828918000,-0.0012922335881739855,-0.0007432587444782257,-0.00041215348755940795,1.1451054811477661,-8.690357208251953e-05,-9.743051528930664
38842859000,-0.000531340716406703,-2.100167330354452e-05,0.002717504510655999,1.173521637916565,-0.05288416147232056,-9.760903358459473
38849678000,-0.000304271699860692,-0.0005139154382050037,-5.844129918841645e-05,1.1195626258850098,0.041165053844451904,-9.731163024902344
38856590000,-0.0014406279660761356,-0.0007989824516698718,-0.00037387997144833207,1.1420063972473145,0.011459648609161377,-9.735173225402832
38863591000,-0.0014645459596067667,-0.0007994818151928484,-0.00042620458407327533,1.1449347734451294,0.0008980631828308105,-9.743090629577637
38870501000,-0.0013566495617851615,-0.0007523366948589683,-0.0004219105467200279,1.145420789718628,-0.0007622838020324707,-9.743586540222168
38884398000,-0.0012980112805962563,-0.0007225929293781519,-0.00040894164703786373,1.1452261209487915,-0.00036710500717163086,-9.743096351623535
38891354000,-0.0004933717427775264,2.440722892060876e-05,0.002707828301936388,1.1738797426223755,-0.05285388231277466,-9.761421203613281
38898314000,-0.0002852447214536369,-0.000492760562337935,-6.211826985236257e-05,1.1194363832473755,0.041168808937072754,-9.731064796447754
38905224000,-0.0014471039175987244,-0.0008129853522405028,-0.00037498289020732045,1.1418395042419434,0.01155710220336914,-9.73522663116455
38919129000,-0.0013596939388662577,-0.0007602613186463714,-0.0004187493759673089,1.145470380783081,-0.0007489919662475586,-9.743489265441895
38926105000,-0.0013178812805563211,-0.0007378131849691272,-0.0004162123368587345,1.1453083753585815,-0.0003681778907775879,-9.74317455291748
38933126000,-0.0012980629689991474,-0.0007225905428640544,-0.0004105410189367831,1.1452926397323608,-0.00029140710830688477,-9.74302864074707
38939950000,-0.0004896725295111537,2.6493275072425604e-05,0.0027068855706602335,1.173922061920166,-0.05289047956466675,-9.76136589050293
38953841000,-0.0014389049028977752,-0.000805653864517808,-0.00037604791577905416,1.141937255859375,0.011522054672241211,-9.73531723022461
38960845000,-0.0014469258021563292,-0.0007979030488058925,-0.00042676247539930046,1.1450719833374023,0.0007759928703308105,-9.743091583251953
38967747000,-0.0013612130424007773,-0.0007565927808173001,-0.00042266680975444615,1.1454870700836182,-0.0006324648857116699,-9.743412017822266
38974706000,-0.001485844375565648,-0.0006942167528904974,-0.0005271695554256439,1.144493818283081,0.002405524253845215,-9.743138313293457
38981687000,-0.0011973693035542965,-0.000871578580699861,-0.0002345507818972692,1.1464898586273193,-0.00667184591293335,-9.742435455322266
38995589000,-0.0004462182696443051,-0.00014651902893092483,0.0028859232552349567,1.1741359233856201,-0.05929511785507202,-9.75942611694336
39002479000,-0.00030748097924515605,-0.00035253018722869456,-0.0001395336294081062,1.1194634437561035,0.04589807987213135,-9.732566833496094
39009421000,-0.0015125558711588383,-0.0008659413433633745,-0.0003806056338362396,1.1416441202163696,0.01053708791732788,-9.734935760498047
39016370000,-0.001447206363081932,-0.0008147316984832287,-0.00042457948438823223,1.1454095840454102,0.00024628639221191406,-9.743391990661621
39030271000,-0.0013123698299750686,-0.0007353617111220956,-0.00041091666207648814,1.1454286575317383,-0.00041162967681884766,-9.7430419921875
39037190000,-0.0014895081985741854,-0.0006278534419834614,-0.0006045163027010858,1.144608497619629,0.004178106784820557,-9.743409156799316
39044132000,-0.000459167524240911,-0.00017011837917380035,0.002878346713259816,1.1744788885116577,-0.0603368878364563,-9.759889602661133
39051066000,-0.00028857385041192174,-0.0003640991053543985,-0.00014174597163219005,1.1196459531784058,0.045625925064086914,-9.732742309570312
39058023000,-0.001492760144174099,-0.0008666631765663624,-0.00038612945354543626,1.1417733430862427,0.010586440563201904,-9.73486328125
39071904000,-0.0013406131183728576,-0.0007634149515070021,-0.00041976897045969963,1.14577054977417,-0.000891566276550293,-9.743512153625488
39078882000,-0.0012969288509339094,-0.0007321778102777898,-0.0004110438167117536,1.1455143690109253,-0.00048345327377319336,-9.743014335632324
39085800000,-0.0014832456363365054,-0.0006243687239475548,-0.0006050519295968115,1.1446619033813477,0.004239678382873535,-9.743318557739258
39092784000,-0.0004586182185448706,-0.0001678240078035742,0.0028782831504940987,1.1745121479034424,-0.06031346321105957,-9.759797096252441
39106615000,-0.001432604854926467,-0.0007576039060950279,-0.0003657321503851563,1.1416294574737549,0.012610077857971191,-9.733969688415527
39113595000,-0.001466007437556982,-0.0007611998007632792,-0.0004212257917970419,1.145108938217163,0.0009927749633789062,-9.742965698242188
39120550000,-0.0015237857587635517,-0.0006789464969187975,-0.0005272469716146588,1.1446837186813354,0.0020385384559631348,-9.743509292602539
39127511000,-0.0012231539003551006,-0.0008605141192674637,-0.00023265469644684345,1.1465950012207031,-0.006773114204406738,-9.742584228515625
39134424000,-0.0013900622725486755,-0.000554482510779053,-0.0005674055428244174,1.144808053970337,0.0065326690673828125,-9.74445629119873
39148341000,-0.00047234934754669666,3.999320324510336e-05,0.0027216726448386908,1.174666166305542,-0.05268031358718872,-9.762290954589844
39155256000,-9.640771895647049e-05,-0.0005709571414627135,0.0001397894520778209,1.1204249858856201,0.037024617195129395,-9.730525016784668
39162303000,-0.001298930961638689,-0.0006063587497919798,-0.0003365903103258461,1.1426222324371338,0.014588713645935059,-9.735039710998535
39169150000,-0.0014804177917540073,-0.0007080492214299738,-0.00041060312651097775,1.1444092988967896,0.002052485942840576,-9.742345809936523
39183047000,-0.0012522386386990547,-0.0008553403313271701,-0.00024117925204336643,1.1459753513336182,-0.007963836193084717,-9.742237091064453
39189963000,-0.0013900850899517536,-0.0005587647319771349,-0.0005654690903611481,1.1447861194610596,0.006190121173858643,-9.74482250213623
39197019000,-0.0006070120725780725,-3.7571589928120375e-05,0.002690837951377034,1.173734188079834,-0.05511796474456787,-9.76069450378418
39203867000,-0.00010431220289319754,-0.0006208734703250229,0.00013287436740938574,1.1207246780395508,0.03589272499084473,-9.731173515319824
39210892000,-0.0015047064516693354,-0.0005940156406722963,-0.0005264715291559696,1.1416776180267334,0.018787920475006104,-9.73541259765625
39224720000,-0.0012195728486403823,-0.0006461108569055796,-0.00038966635474935174,1.146099328994751,0.001293957233428955,-9.745060920715332
39231674000,-0.0013061965582892299,-0.0006960441241972148,-0.0004027173563372344,1.1450109481811523,0.0006032586097717285,-9.742663383483887
39238574000,-0.0012952652759850025,-0.0006950940005481243,-0.0004044480447191745,1.145352840423584,-0.0001385211944580078,-9.743043899536133
39245597000,-0.0005117260734550655,3.076717257499695e-05,0.0027140602469444275,1.1739728450775146,-0.05278104543685913,-9.76127815246582
39259457000,-0.001437848899513483,-0.0008008336881175637,-0.00036428391467779875,1.1420693397521973,0.01140141487121582,-9.735241889953613
39266389000,-0.0014598590787500143,-0.0008006185526028275,-0.0004154690832365304,1.1452357769012451,0.0008561015129089355,-9.743062973022461
39273347000,-0.0013818538282066584,-0.0007642544223926961,-0.00041512103052809834,1.145646333694458,-0.0005412101745605469,-9.74337387084961
39280368000,-0.0013109559658914804,-0.0007244427688419819,-0.00041004150989465415,1.1456958055496216,-0.0005835890769958496,-9.743335723876953
39294270000,-0.000833041500300169,-0.0024209488183259964,0.0062416628934443,1.1549980640411377,-0.10952103137969971,-9.731213569641113
39301108000,0.0017589099006727338,0.0014103441499173641,0.0006279974477365613,1.1543984413146973,0.07496535778045654,-9.753639221191406
39308043000,-0.001626411103643477,0.0007016574963927269,-0.0004909815615974367,1.1338388919830322,0.03772515058517456,-9.7236328125
39315014000,-0.0016159421065822244,5.495152436196804e-05,-0.0002821620146278292,1.142930269241333,-0.0038167834281921387,-9.744604110717773
39321916000,-0.0012964211637154222,0.00010896055027842522,-0.0004315410042181611,1.1445062160491943,0.0006759166717529297,-9.75037956237793
39335829000,-0.001315335277467966,-0.0005294120055623353,-0.00042792587191797793,1.1434284448623657,-0.0003351569175720215,-9.747238159179688
39342799000,-0.0013078392948955297,-0.0007580385426990688,-0.0004250871716067195,1.143631935119629,-0.00016808509826660156,-9.746294021606445
39349721000,-0.0014611578080803156,-0.0008731370326131582,-0.0005320742493495345,1.1432064771652222,0.0026190876960754395,-9.745409965515137
39356639000,-0.00037273985799402,-0.00041086217970587313,0.002875169040635228,1.174278974533081,-0.05937790870666504,-9.762353897094727
39370531000,-0.0014090678887441754,-0.0009601152851246297,-0.00038052143645472825,1.1419904232025146,0.012502908706665039,-9.733341217041016
39377668000,-0.0014579403214156628,-0.0009429351193830371,-0.00043458864092826843,1.1449270248413086,0.0010691285133361816,-9.742416381835938
39384481000,-0.0015477270353585482,-0.0008636533748358488,-0.0005390830338001251,1.144385576248169,0.0022096633911132812,-9.743117332458496
39391374000,-0.0012404610170051455,-0.0010136265773326159,-0.0002440883545204997,1.1465086936950684,-0.006802916526794434,-9.742236137390137
39398363000,-0.0013741404982283711,-0.0006508055375888944,-0.0005819785292260349,1.1449116468429565,0.006415724754333496,-9.744263648986816
39412291000,-0.00046060746535658836,9.167561074718833e-06,0.002715851180255413,1.1748580932617188,-0.052766382694244385,-9.762177467346191
39419168000,-9.149062680080533e-05,-0.000582642387598753,0.00012677157064899802,1.1202309131622314,0.037192583084106445,-9.730146408081055
39426115000,-0.0014910604804754257,-0.0005687475786544383,-0.0004535706539172679,1.1414482593536377,0.01746809482574463,-9.734033584594727
39433094000,-0.0013317815028131008,-0.0007987234857864678,-0.0002502560382708907,1.1457922458648682,-0.0044928789138793945,-9.742410659790039
39446967000,-0.001318766619078815,-0.0006390237249433994,-0.00041198829421773553,1.144484281539917,0.0006501674652099609,-9.742773056030273
39453865000,-0.0013385419733822346,-0.0006747804000042379,-0.0004125904233660549,1.1448469161987305,3.319978713989258e-05,-9.74317455291748
39460881000,-0.0005178722203709185,4.882120992988348e-05,0.0027101514860987663,1.173693299293518,-0.0530429482460022,-9.761818885803223
39467766000,-0.0003162629436701536,-0.0004927824484184384,-6.0147773183416575e-05,1.1192777156829834,0.04121524095535278,-9.731391906738281
39474681000,-0.0014083662535995245,-0.0008129693451337516,-0.00037483079358935356,1.141890287399292,0.011205792427062988,-9.736435890197754
39488617000,-0.0013495117891579866,-0.0007878640317358077,-0.000426939339376986,1.1454393863677979,-0.0006706118583679199,-9.743603706359863
39495616000,-0.0013320628786459565,-0.0007925292593427002,-0.00041313309338875115,1.1450576782226562,-0.0004248619079589844,-9.742836952209473
39502525000,-0.0012934596743434668,-0.0007535297190770507,-0.0004099541692994535,1.1454365253448486,-0.0003476142883300781,-9.743120193481445
39509459000,-0.0005315471207723022,-3.149165422655642e-05,0.002712797373533249,1.173658847808838,-0.05272245407104492,-9.760826110839844
39523314000,-0.0014664586633443832,-0.0008250506361946464,-0.0003686227719299495,1.1419613361358643,0.011471092700958252,-9.73507308959961
39530321000,-0.0014525214210152626,-0.0007959377835504711,-0.00042113481322303414,1.1452018022537231,0.0006865859031677246,-9.743175506591797
39537207000,-0.0013725095195695758,-0.0007522415253333747,-0.00042138155549764633,1.1454787254333496,-0.000527799129486084,-9.74335765838623
39544224000,-0.0013196845538914204,-0.0007209163159132004,-0.0004154908820055425,1.1454222202301025,-0.00048172473907470703,-9.743215560913086
39551109000,-0.0013119600480422378,-0.0007117694476619363,-0.00040919292951002717,1.1452890634536743,-0.0002307891845703125,-9.74295711517334
39558031000,-0.0013009831309318542,-0.000703410420101136,-0.00040703907143324614,1.1452033519744873,-0.00019949674606323242,-9.742923736572266
39571931000,-0.0002923264692071825,-0.0004758584836963564,-6.019171269144863e-05,1.1194977760314941,0.041242003440856934,-9.731060981750488
39578948000,-0.001458061975426972,-0.0008180975564755499,-0.00036899122642353177,1.1417560577392578,0.011504769325256348,-9.735401153564453
39585814000,-0.0014663937035948038,-0.0008075434598140419,-0.00042050029151141644,1.145115852355957,0.0007891058921813965,-9.743115425109863
39592785000,-0.0013627246953547,-0.0007564344559796154,-0.00041571553447283804,1.1455897092819214,-0.000750124454498291,-9.743536949157715
39599721000,-0.0013136337511241436,-0.0007261820719577372,-0.00041494876495562494,1.145426869392395,-0.00038361549377441406,-9.7432279586792
39613663000,-0.00046863919124007225,-0.00017658308206591755,0.0028805756010115147,1.1744515895843506,-0.06026947498321533,-9.759950637817383
39620532000,-0.00014253664994612336,-0.000413882895372808,-3.2664254831615835e-05,1.120485782623291,0.042932748794555664,-9.732780456542969
39627539000,-0.0014233427355065942,-0.0007629711763001978,-0.000366944499546662,1.1416195631027222,0.01256251335144043,-9.734204292297363
39634454000,-0.0014550958294421434,-0.0007710080244578421,-0.0004211713676340878,1.1450097560882568,0.0009611248970031738,-9.742986679077148
39648388000,-0.0012256777845323086,-0.0008685597567819059,-0.00023597083054482937,1.146647572517395,-0.006841719150543213,-9.742722511291504
39655262000,-0.001386514282785356,-0.0005628880462609231,-0.0005735100130550563,1.1447029113769531,0.006537377834320068,-9.744439125061035
39662283000,-0.0005988457705825567,-8.976177196018398e-05,0.002769321668893099,1.1734960079193115,-0.05658310651779175,-9.759809494018555
39669161000,-6.273144390434027e-05,-0.0005711759440600872,0.00014243960322346538,1.121222734451294,0.03685891628265381,-9.731678009033203
39683079000,-0.001471572439186275,-0.0007131872698664665,-0.0004155049682594836,1.1443549394607544,0.002177119255065918,-9.742316246032715
39690040000,-0.0015043249586597085,-0.0006183640216477215,-0.0005327213439159095,1.1447880268096924,0.002092123031616211,-9.744085311889648
39697029000,-0.0012248842976987362,-0.000836045597679913,-0.00023599626729264855,1.146315336227417,-0.00669252872467041,-9.742684364318848
39703893000,-0.0013874702854081988,-0.0005462279659695923,-0.0005746412207372487,1.1446266174316406,0.00656580924987793,-9.744678497314453
39710836000,-0.0005876125651411712,-8.311914280056953e-05,0.002769212471321225,1.1734535694122314,-0.056671202182769775,-9.760058403015137
39724735000,-0.001285739243030548,-0.0006300038076005876,-0.0003409876662772149,1.1424616575241089,0.014854848384857178,-9.734977722167969
39731692000,-0.0014724868815392256,-0.0007291310466825962,-0.0004178426752332598,1.144443154335022,0.0021373629570007324,-9.742438316345215
39738601000,-0.0015839282423257828,-0.0006278430810198188,-0.0006103991763666272,1.1446137428283691,0.0037827491760253906,-9.744073867797852
39745594000,-0.001427425886504352,-0.0008450087043456733,-0.00035671479417942464,1.1453559398651123,-0.005240499973297119,-9.742501258850098
39759446000,-0.0004977192147634923,2.1195155568420887e-06,0.002717220224440098,1.1739089488983154,-0.05260962247848511,-9.761373519897461
39766412000,-9.708426659926772e-05,-0.0006060048472136259,0.000136551825562492,1.1204018592834473,0.036861956119537354,-9.730629920959473
39773349000,-0.0015253754099830985,-0.000574408913962543,-0.0005272155394777656,1.1416678428649902,0.019025802612304688,-9.735052108764648
39780401000,-0.001414465717971325,-0.0009135081782005727,-0.000251406105235219,1.145451307296753,-0.00545954704284668,-9.741598129272461
39787212000,-0.00122522481251508,-0.0006261488306336105,-0.00038961978862062097,1.1461138725280762,0.001200556755065918,-9.745193481445312
39801122000,-0.0013346211053431034,-0.0007067423430271447,-0.00040622500819154084,1.1451480388641357,0.00011706352233886719,-9.742842674255371
39808032000,-0.0005197974387556314,3.583339275792241e-05,0.0027133445255458355,1.174095869064331,-0.0529632568359375,-9.761592864990234
39815036000,-0.0003016773844137788,-0.00048783543752506375,-5.52231322217267e-05,1.1196329593658447,0.04107552766799927,-9.731201171875
39828941000,-0.0014635615516453981,-0.0008168693748302758,-0.0004153737099841237,1.1452629566192627,0.0007807612419128418,-9.743145942687988
39835830000,-0.0013635088689625263,-0.0007662062416784465,-0.000416451133787632,1.1457324028015137,-0.0006365180015563965,-9.743528366088867
39842793000,-0.0013218141393736005,-0.0007415245054289699,-0.0004100935475435108,1.1455867290496826,-0.00043457746505737305,-9.743144035339355
39849725000,-0.001304158940911293,-0.0007264504674822092,-0.0004033782461192459,1.1455175876617432,-0.00030434131622314453,-9.742937088012695
39856678000,-0.001304806093685329,-0.0007153450860641897,-0.0004027819668408483,1.145440936088562,-0.00011223554611206055,-9.742819786071777
39870556000,0.0017563195433467627,0.0014086454175412655,0.0006300091044977307,1.1543443202972412,0.07497930526733398,-9.753613471984863
39877542000,-0.001638797577470541,0.0006930788513273001,-0.0004890187410637736,1.1337252855300903,0.037777483463287354,-9.723514556884766
39884438000,-0.0015849706251174212,8.828029967844486e-05,-0.00028913989081047475,1.143322229385376,-0.00384676456451416,-9.74507999420166
39891377000,-0.0013163320254534483,8.575967513024807e-05,-0.0004229251644574106,1.1439292430877686,0.0006811022758483887,-9.749794960021973
39898356000,-0.0013510945718735456,-0.0002572552766650915,-0.00043218061910010874,1.142954707145691,0.0002835392951965332,-9.747426986694336
39912308000,-0.0014758529141545296,-0.0007155474741011858,-0.0005333665758371353,1.1428749561309814,0.002522408962249756,-9.74650764465332
39919144000,-0.0012242842931300402,-0.0010921232169494033,-0.00023953082563821226,1.1449568271636963,-0.006485164165496826,-9.74451732635498
39926189000,-0.0005856279167346656,-0.00014005100820213556,0.0025427830405533314,1.172727346420288,-0.04623210430145264,-9.764321327209473
39933083000,-0.00020336656598374248,-0.0009816656820476055,9.674193279352039e-05,1.1196355819702148,0.03471577167510986,-9.730334281921387
39939990000,-0.0013145790435373783,-0.00091206980869174,-0.00035688362549990416,1.1428914070129395,0.013701796531677246,-9.734223365783691
39953917000,-0.0015808151802048087,-0.0007874645525589585,-0.0006219681818038225,1.1444642543792725,0.003922879695892334,-9.743607521057129
39960846000,-0.0014577627880498767,-0.000988971209153533,-0.0003700149245560169,1.145118236541748,-0.005014598369598389,-9.74173355102539
39967776000,-0.0012593935243785381,-0.0007966368575580418,-0.00040464839548803866,1.1462957859039307,-0.0006033778190612793,-9.744157791137695
39974701000,-0.001315349480137229,-0.0008012093021534383,-0.00040715475915931165,1.144948124885559,0.00026541948318481445,-9.742183685302734
39988611000,-0.0002624698099680245,-0.0005566056352108717,1.7402850062353536e-05,1.1194348335266113,0.03963017463684082,-9.730306625366211
39995588000,-0.0013669042382389307,-0.0007743596797809005,-0.00027969665825366974,1.1423677206039429,0.010987460613250732,-9.73436164855957
40002532000,-0.0011930821929126978,-0.0007693421212024987,-0.00022444265778176486,1.1461821794509888,-0.0020979642868041992,-9.743247032165527
40009472000,-0.0014487627195194364,-0.0005172766977921128,-0.0005850907182320952,1.1440625190734863,0.007462143898010254,-9.744032859802246
40023327000,-0.00133823964279145,-0.0007037980831228197,-0.00041745463386178017,1.1453514099121094,-0.0012292265892028809,-9.743731498718262
40030304000,-0.0005155224353075027,2.986632171086967e-05,0.002708998741582036,1.1737847328186035,-0.053110480308532715,-9.761746406555176
40037214000,-0.00030797231011092663,-0.0005014869384467602,-6.062490137992427e-05,1.1193464994430542,0.04117143154144287,-9.731319427490234
40044230000,-0.0014651597011834383,-0.0008516966481693089,-0.00037437560968101025,1.1416354179382324,0.01154857873916626,-9.73575210571289
40058032000,-0.001353910192847252,-0.0007841364713385701,-0.00042461443808861077,1.1454951763153076,-0.0006811022758483887,-9.74358081817627
40065030000,-0.0013093554880470037,-0.000756683642975986,-0.0004230534832458943,1.1453194618225098,-0.00036448240280151367,-9.743183135986328
40071951000,-0.0013331787195056677,-0.0007782239699736238,-0.00040513317799195647,1.1449484825134277,-0.00025779008865356445,-9.742471694946289
40078956000,-0.0005081691779196262,-1.4607212506234646e-07,0.0027092695236206055,1.1741480827331543,-0.0529213547706604,-9.761466979980469
40085824000,-0.0003000043798238039,-0.0005080748815089464,-6.0781781940022483e-05,1.1195189952850342,0.04117101430892944,-9.730929374694824
40099736000,-0.0014504548162221909,-0.0007923613884486258,-0.00042735133320093155,1.1451659202575684,0.0007232427597045898,-9.743189811706543
40106688000,-0.001370987854897976,-0.0007546550477854908,-0.00042272201972082257,1.1454384326934814,-0.0006048679351806641,-9.743352890014648
40113679000,-0.0013176767388358712,-0.0007246712339110672,-0.0004162488621659577,1.1454172134399414,-0.000493466854095459,-9.743233680725098
40120544000,-0.0013131569139659405,-0.0007187124574556947,-0.00040924354107119143,1.1452629566192627,-0.0002244114875793457,-9.742927551269531
40127560000,-0.0013055584859102964,-0.0007091004517860711,-0.00040821440052241087,1.1452224254608154,-0.00015884637832641602,-9.742924690246582
40141461000,-0.0003025683108717203,-0.0004838423919863999,-6.090039823902771e-05,1.119490146636963,0.041303038597106934,-9.7310152053833
40148402000,-0.0014424133114516735,-0.0008103526779450476,-0.0003696125349961221,1.1418540477752686,0.011355757713317871,-9.735499382019043
40155266000,-0.0014709635870531201,-0.0008126682369038463,-0.0004192932683508843,1.145029067993164,0.0008725523948669434,-9.742968559265137
40162248000,-0.0013762051239609718,-0.0007640596595592797,-0.0004198882379569113,1.1455422639846802,-0.0006129145622253418,-9.7434720993042
40176167000,-0.0012053794926032424,-0.0008730884874239564,-0.00023359578335657716,1.1464592218399048,-0.006604015827178955,-9.742365837097168
40183108000,-0.0005741807399317622,0.00017481588292866945,0.00254865107126534,1.173548936843872,-0.046204209327697754,-9.762805938720703
40190011000,-0.00022242864361032844,-0.0006508510559797287,0.000109683649498038,1.119948387145996,0.03474634885787964,-9.729401588439941
40196968000,-0.001292733708396554,-0.0006550067919306457,-0.00034371131914667785,1.1428024768829346,0.013463854789733887,-9.73594856262207
40203919000,-0.0014481227844953537,-0.0007322084857150912,-0.00041886349208652973,1.1445047855377197,0.0019434690475463867,-9.742465019226074
40217786000,-0.0012329708551988006,-0.0008634910918772221,-0.00023390742717310786,1.1464442014694214,-0.006872773170471191,-9.742690086364746
40224718000,-0.0013805616181343794,-0.0005526675959117711,-0.0005725638475269079,1.144758701324463,0.006487131118774414,-9.744680404663086
40231701000,-0.0005980663117952645,-8.770605199970305e-05,0.0027696313336491585,1.1734421253204346,-0.056541502475738525,-9.759895324707031
40238606000,-8.569983765482903e-05,-0.0005887527950108051,0.00014429344446398318,1.1210765838623047,0.0369686484336853,-9.731587409973145
40245595000,-0.00128646451048553,-0.0006229706923477352,-0.0003360836417414248,1.1425528526306152,0.01464754343032837,-9.735112190246582
40259438000,-0.001553960144519806,-0.0006675819749943912,-0.0005261949263513088,1.1443755626678467,0.0023180246353149414,-9.743491172790527
40266433000,-0.001260872813872993,-0.0008686382207088172,-0.00023204840545076877,1.1464195251464844,-0.006722867488861084,-9.742744445800781
40273335000,-0.00140220089815557,-0.0005622570170089602,-0.0005671823164448142,1.1447653770446777,0.0063925981521606445,-9.744782447814941
40280360000,-0.0004260212881490588,-0.0001230408961419016,0.002881544642150402,1.1744557619094849,-0.05945819616317749,-9.760169982910156
40287245000,-0.0003501592145767063,-0.0003944795171264559,-0.0001367584482068196,1.1190674304962158,0.04611891508102417,-9.732231140136719
40301126000,-0.0014805190730839968,-0.0008551627979613841,-0.0004246346070431173,1.1455299854278564,0.0002923011779785156,-9.743417739868164
40308053000,-0.0013461681082844734,-0.0007815623539499938,-0.0004196515947114676,1.1458518505096436,-0.0009250044822692871,-9.743653297424316
40315064000,-0.0015047058695927262,-0.0006676742923446,-0.0006105590728111565,1.1447542905807495,0.004032552242279053,-9.743468284606934
40321938000,-0.0012729419395327568,-0.0009476915001869202,-0.00024119213048834354,1.1460330486297607,-0.007643401622772217,-9.741399765014648
40328970000,-0.0013789852382615209,-0.0005899711395613849,-0.0005654057604260743,1.1452012062072754,0.006017148494720459,-9.744553565979004
40342772000,-0.00012339826207607985,-0.0006170233828015625,0.00013735955872107297,1.121053695678711,0.03579914569854736,-9.73101806640625
40349746000,-0.0014835081528872252,-0.0005372482119128108,-0.0005300093907862902,1.1420954465866089,0.018710434436798096,-9.735666275024414
40356668000,-0.0013898138422518969,-0.0008846886921674013,-0.00025291417841799557,1.145382285118103,-0.005392014980316162,-9.741374015808105
40363717000,-0.0012434422969818115,-0.0006198176997713745,-0.00038922790554352105,1.1459705829620361,0.00140458345413208,-9.744852066040039
40377557000,-0.0013248437317088246,-0.0006850702338851988,-0.0004019491607323289,1.1452341079711914,-2.8014183044433594e-05,-9.742941856384277
40384513000,-0.0005239491583779454,4.096305929124355e-05,0.0027205641381442547,1.1739652156829834,-0.052942633628845215,-9.76145076751709
40391409000,-0.00030878427787683904,-0.00047942696255631745,-5.450613025459461e-05,1.1196786165237427,0.04120004177093506,-9.731279373168945
40398391000,-0.0014573485823348165,-0.0008176953997462988,-0.00036271580029278994,1.1419668197631836,0.011391818523406982,-9.7355318069458
40405300000,-0.0014747832901775837,-0.0008166774059645832,-0.00041453028097748756,1.145248293876648,0.0008414983749389648,-9.743147850036621
40419195000,-0.0013229730539023876,-0.0007400255417451262,-0.0004100925871171057,1.1456551551818848,-0.0005130767822265625,-9.743276596069336
40426132000,-0.0013011316768825054,-0.0007280524005182087,-0.0003981551853939891,1.145509958267212,-0.0004203915596008301,-9.74294376373291
40433101000,-0.0008391840383410454,-0.002430931432172656,0.006240918766707182,1.1549808979034424,-0.10939514636993408,-9.731125831604004
40440010000,0.0017606521723791957,0.0014101945562288165,0.000629260262940079,1.154470443725586,0.07489103078842163,-9.753586769104004
40447016000,-0.001629614271223545,0.0007042526267468929,-0.0004910353454761207,1.1338272094726562,0.03777480125427246,-9.7235107421875
40460927000,-0.0012903475435450673,0.00011235626880079508,-0.0004317647544667125,1.1445964574813843,0.00042766332626342773,-9.750555992126465
40467811000,-0.00136008788831532,-0.00026141584385186434,-0.0004334307159297168,1.1427264213562012,0.00034612417221069336,-9.747182846069336
40474735000,-0.0013297107070684433,-0.0005371259176172316,-0.00042818597285076976,1.1434197425842285,-0.0003247857093811035,-9.747257232666016
40481727000,-0.0013163841795176268,-0.0007626546430401504,-0.0004260572895873338,1.1436529159545898,-0.00018858909606933594,-9.746354103088379
40495617000,-0.0004670076596084982,-0.00048364358372054994,0.0028697361703962088,1.1735308170318604,-0.06031060218811035,-9.761358261108398
40502606000,-0.00015577353769913316,-0.0007468037074431777,-4.1507322748657316e-05,1.1200220584869385,0.04298865795135498,-9.732742309570312
40509478000,-0.0014332558494061232,-0.0009950360981747508,-0.0003786762827076018,1.1420321464538574,0.012620151042938232,-9.73316478729248
40516444000,-0.0014637114945799112,-0.0009592341375537217,-0.00043416692642495036,1.145059585571289,0.000988602638244629,-9.742431640625
40523348000,-0.0015763621777296066,-0.0008226028876379132,-0.0006229133578017354,1.1446133852005005,0.003747403621673584,-9.74361801147461
40537243000,-0.0013328350614756346,-0.000870731717441231,-0.0004162181285209954,1.14573073387146,-0.0014892816543579102,-9.743158340454102
40544208000,-0.0013291460927575827,-0.0008333012810908258,-0.0004081892839167267,1.145322322845459,-0.00023859739303588867,-9.742398262023926
40551157000,-0.0004832611884921789,-2.0002014935016632e-05,0.0027082860469818115,1.1743102073669434,-0.05306863784790039,-9.761239051818848
40558069000,-0.0002879149978980422,-0.0005106415483169258,-6.598743493668735e-05,1.1195824146270752,0.0413205623626709,-9.730615615844727
40565049000,-0.0014583459123969078,-0.0007839569007046521,-0.0003762763226404786,1.142094373703003,0.011565566062927246,-9.734452247619629
40578958000,-0.0013907910324633121,-0.0007371869287453592,-0.00042179820593446493,1.1453378200531006,-0.000525355339050293,-9.743285179138184
40585889000,-0.0013202077243477106,-0.0007059565396048129,-0.0004142026009503752,1.1453651189804077,-0.0006118416786193848,-9.743370056152344
40592824000,-0.0013261502608656883,-0.0007110210135579109,-0.0004120353260077536,1.145117998123169,-8.726119995117188e-05,-9.742965698242188
40599770000,-0.0004988978616893291,4.133614129386842e-05,0.0027083633467555046,1.1739553213119507,-0.053038716316223145,-9.761632919311523
40613679000,-0.0014692253898829222,-0.0008330660057254136,-0.00036910566268488765,1.1417478322982788,0.011496245861053467,-9.735451698303223
40620602000,-0.0014684740453958511,-0.0008181043085642159,-0.00042614556150510907,1.1451258659362793,0.0008371472358703613,-9.74328899383545
40627538000,-0.001362618524581194,-0.0007717335247434676,-0.0004221055132802576,1.145493984222412,-0.0007469058036804199,-9.743569374084473
40634499000,-0.0013321440201252699,-0.0007532762247137725,-0.0004161678662057966,1.1453545093536377,-0.0003529191017150879,-9.743148803710938
40641405000,-0.001295810448937118,-0.0007296841940842569,-0.0004104420659132302,1.1453776359558105,-0.00038492679595947266,-9.743118286132812
40655297000,-0.00028760667191818357,-0.0004969019792042673,-6.30995855317451e-05,1.1195645332336426,0.041106998920440674,-9.731072425842285
40662312000,-0.001456016325391829,-0.0008216534624807537,-0.0003704046248458326,1.1418771743774414,0.011499464511871338,-9.73507308959961
40669198000,-0.0014468622393906116,-0.0008003467228263617,-0.00042232239502482116,1.145204782485962,0.0007037520408630371,-9.743215560913086
40676148000,-0.0013789127115160227,-0.0007656176458112895,-0.0004224674485158175,1.1454732418060303,-0.0004608035087585449,-9.743327140808105
40683105000,-0.001499074511229992,-0.0007036302122287452,-0.0005263217026367784,1.144512414932251,0.002367377281188965,-9.743124008178711
40697090000,-0.0013695424422621727,-0.0005630434607155621,-0.0005693331477232277,1.1446943283081055,0.006527543067932129,-9.744300842285156
40703929000,-0.0004570928285829723,-0.00015432466170750558,0.002886437578126788,1.1741292476654053,-0.05922776460647583,-9.759356498718262
40710893000,-0.0003141131019219756,-0.00035690917866304517,-0.00013979287177789956,1.119517207145691,0.045890092849731445,-9.73260498046875
40717874000,-0.0015208064578473568,-0.0008714522700756788,-0.00038100656820461154,1.141669511795044,0.010549724102020264,-9.734926223754883
40731761000,-0.0013523483648896217,-0.000767375051509589,-0.00041772128315642476,1.1456884145736694,-0.0008552074432373047,-9.743515014648438
40738658000,-0.0014902767725288868,-0.0007035044836811721,-0.0005279289907775819,1.1445481777191162,0.002571582794189453,-9.743021011352539
40745617000,-0.0011861633975058794,-0.0008715150761418045,-0.0002348315465496853,1.1465948820114136,-0.0067757368087768555,-9.742424964904785
40752528000,-0.0005770445568487048,0.0001668591285124421,0.0025496522430330515,1.173532485961914,-0.04611539840698242,-9.762575149536133
40759467000,-0.0002246414660476148,-0.0006501947646029294,0.0001039984927047044,1.1200246810913086,0.034854888916015625,-9.729371070861816
40773405000,-0.0014682224718853831,-0.0007387596415355802,-0.00041546867578290403,1.1447786092758179,0.0017972588539123535,-9.742658615112305
40780350000,-0.0013982558157294989,-0.0007204122957773507,-0.0004132073081564158,1.1453957557678223,-0.0005347132682800293,-9.743407249450684
40787288000,-0.0015341409016400576,-0.0006134834256954491,-0.0006016368861310184,1.1447242498397827,0.003866136074066162,-9.743919372558594
40794231000,-0.0012638000771403313,-0.0008856448694132268,-0.00024208711693063378,1.1461045742034912,-0.007693111896514893,-9.742119789123535
40801158000,-0.0005811055889353156,0.00016858961316756904,0.00255437265150249,1.173720359802246,-0.046727120876312256,-9.763232231140137
40815103000,-0.001465565524995327,-0.0006431520450860262,-0.0004592749464791268,1.1419014930725098,0.016349494457244873,-9.736146926879883
40821970000,-0.0013308249181136489,-0.0009052204550243914,-0.0002392093592789024,1.1458187103271484,-0.004647314548492432,-9.7420654296875
40829013000,-0.0012636998435482383,-0.0006777556845918298,-0.00038868747651576996,1.1456100940704346,0.0020685195922851562,-9.744302749633789
40835858000,-0.0013417417649179697,-0.0007156812935136259,-0.0004047664115205407,1.145050287246704,0.0006085038185119629,-9.742630958557129
40842782000,-0.0013303866144269705,-0.0007101415540091693,-0.0004067699483130127,1.145358681678772,-0.0001303553581237793,-9.74299430847168
40856699000,-0.0005130512872710824,3.68471082765609e-05,0.0027198167517781258,1.1740243434906006,-0.05297333002090454,-9.761373519897461
40863723000,-0.0003020222648046911,-0.000478236994240433,-5.510179471457377e-05,1.1196787357330322,0.041220903396606445,-9.731152534484863
40870579000,-0.0014728254172950983,-0.000823353708256036,-0.00036267010727897286,1.141876220703125,0.011504769325256348,-9.735286712646484
40877574000,-0.0014633301179856062,-0.0008046695729717612,-0.0004145520506426692,1.1453272104263306,0.0006887316703796387,-9.743244171142578
40891420000,-0.0013288272311910987,-0.0007366551435552537,-0.00040892354445531964,1.1455334424972534,-0.00046133995056152344,-9.743145942687988
40898426000,-0.0013128658756613731,-0.00072149105835706,-0.00040324387373402715,1.145517349243164,-0.00027948617935180664,-9.742990493774414
40905317000,-0.0008415896445512772,-0.0024259244091808796,0.006240636110305786,1.1549185514450073,-0.10952699184417725,-9.731163024902344
40912282000,0.001755043864250183,0.001407961011864245,0.0006284713745117188,1.154405951499939,0.0749174952507019,-9.753677368164062
40919192000,-0.0016459862235933542,0.0006912925746291876,-0.0004913037410005927,1.1337286233901978,0.037823259830474854,-9.723484992980957
40933134000,-0.0013061324134469032,9.936664719134569e-05,-0.00043102767085656524,1.1444501876831055,0.0006328225135803223,-9.750391960144043
40940021000,-0.0013420779723674059,-0.0002536128740757704,-0.00043551099952310324,1.1428285837173462,0.00020140409469604492,-9.747408866882324
40947003000,-0.0013350596418604255,-0.000545499031431973,-0.0004275123355910182,1.1432771682739258,-0.00024056434631347656,-9.747075080871582
40953931000,-0.001304329140111804,-0.000752256833948195,-0.00042865012073889375,1.1438007354736328,-0.00022393465042114258,-9.746567726135254
40967907000,-0.0004427669628057629,-0.0004609407333191484,0.0028613549657166004,1.1739859580993652,-0.06044095754623413,-9.76198673248291
40974763000,-0.00016663811402395368,-0.0007468901458196342,-4.506804179982282e-05,1.1198375225067139,0.04310983419418335,-9.73250675201416
40981862000,-0.0014236581046134233,-0.0009933698456734419,-0.00038004209636710584,1.1419930458068848,0.012459874153137207,-9.733256340026855
40988741000,-0.0014634623657912016,-0.0009590543922968209,-0.00043489038944244385,1.1450315713882446,0.0010333061218261719,-9.742369651794434
40995759000,-0.0015681202057749033,-0.0008202799363061786,-0.0006232186569832265,1.1445896625518799,0.003693997859954834,-9.743651390075684
41009542000,-0.0013354679103940725,-0.0008721612393856049,-0.0004170633037574589,1.1456778049468994,-0.0014093518257141113,-9.743114471435547
41016637000,-0.0013329051434993744,-0.0008365188259631395,-0.00040851792437024415,1.1452760696411133,-0.00024116039276123047,-9.742378234863281
41023515000,-0.0005049065803177655,-3.143987851217389e-05,0.0027080343570560217,1.1742284297943115,-0.0529705286026001,-9.761138916015625
41030412000,-0.0002702271449379623,-0.0004992618341930211,-6.365259469021112e-05,1.1197367906570435,0.04105865955352783,-9.730889320373535
41037414000,-0.0014437849167734385,-0.0007760924054309726,-0.00037709216121584177,1.1420042514801025,0.01162874698638916,-9.73439884185791
41051260000,-0.0013678441755473614,-0.0007275072275660932,-0.0004219623515382409,1.1454060077667236,-0.0007443428039550781,-9.74348258972168
41058255000,-0.0013497851323336363,-0.0007185533759184182,-0.00041585887083783746,1.14521062374115,-0.0002834796905517578,-9.743131637573242
41065197000,-0.0013298466801643372,-0.0007150131277740002,-0.0004127728461753577,1.1451215744018555,-0.00025451183319091797,-9.743066787719727
41079192000,-0.0003279991797171533,-0.0005002287216484547,-6.321260298136622e-05,1.1194604635238647,0.041194915771484375,-9.731047630310059
41086006000,-0.0014678696170449257,-0.0008324394002556801,-0.00037566738319583237,1.141762137413025,0.011426091194152832,-9.735642433166504
41092930000,-0.0014752070419490337,-0.00082596973516047,-0.0004269661440048367,1.1450364589691162,0.0007867217063903809,-9.743195533752441
41100022000,-0.001375105930492282,-0.0007789119845256209,-0.000424007885158062,1.145477056503296,-0.0006930828094482422,-9.743559837341309
41113932000,-0.0013146803248673677,-0.0007416283478960395,-0.00041039736242964864,1.145236611366272,-0.0001786947250366211,-9.74289321899414
41120747000,-0.000688417349010706,0.00010516756447032094,0.0025109383277595043,1.173242449760437,-0.04853940010070801,-9.76192855834961
41127677000,-0.00021460186690092087,-0.0006771699409000576,9.809179027797654e-05,1.1203434467315674,0.03362834453582764,-9.730026245117188
41134602000,-0.0013268159236758947,-0.0007224183646030724,-0.0003460735024418682,1.1424524784088135,0.013542592525482178,-9.73564624786377
41141584000,-0.0014678656589239836,-0.00077852513641119,-0.0004224127042107284,1.1446316242218018,0.0018960237503051758,-9.742552757263184
41155450000,-0.0015324513660743833,-0.0006382589926943183,-0.0006113577983342111,1.1445703506469727,0.003988087177276611,-9.74372386932373
41162534000,-0.0012442073784768581,-0.0008973712683655322,-0.00024627504171803594,1.146104097366333,-0.007879793643951416,-9.742128372192383
41169353000,-0.0005635977722704411,0.00016363459872081876,0.0025457958690822124,1.173640251159668,-0.046638548374176025,-9.763153076171875
41176277000,-0.0002236979198642075,-0.0006718920194543898,9.97822789940983e-05,1.119866132736206,0.03493231534957886,-9.7294340133667
41190180000,-0.0014028782024979591,-0.0009504750487394631,-0.0002585211768746376,1.1454616785049438,-0.0056493282318115234,-9.741634368896484
41197156000,-0.0012565951328724623,-0.0006869437638670206,-0.00039183092303574085,1.1457960605621338,0.0013601183891296387,-9.74470329284668
41204063000,-0.0013228596653789282,-0.000714978261385113,-0.0004103059764020145,1.1450440883636475,0.0005894303321838379,-9.742752075195312
41211002000,-0.0013384975027292967,-0.0007244505104608834,-0.00040813052328303456,1.1451733112335205,-3.910064697265625e-05,-9.742831230163574
41218003000,-0.0004990444867871702,3.656974877230823e-05,0.0027126502245664597,1.1741113662719727,-0.05312007665634155,-9.761614799499512
41231943000,-0.0014501223340630531,-0.0008149737259373069,-0.0003710219752974808,1.1419665813446045,0.011293649673461914,-9.735540390014648
41238902000,-0.0014582243748009205,-0.0008091292693279684,-0.00042334094177931547,1.1451537609100342,0.0008039474487304688,-9.74312973022461
41245817000,-0.0013935675378888845,-0.0007724023889750242,-0.0004240602138452232,1.1455799341201782,-0.0004271864891052246,-9.743399620056152
41252702000,-0.0013213625643402338,-0.0007369708037003875,-0.0004173607740085572,1.1455450057983398,-0.0006124377250671387,-9.743318557739258
41266642000,-0.0013039809418842196,-0.0007178262458182871,-0.00040405281470157206,1.145378828048706,-0.00018781423568725586,-9.74292278289795
41273491000,-0.0004963796236552298,3.296622890047729e-05,0.0027128728106617928,1.1740498542785645,-0.05288398265838623,-9.761316299438477
41280520000,-0.00030497892294079065,-0.0004898897605016828,-5.689588579116389e-05,1.119567632675171,0.041251420974731445,-9.730905532836914
41287399000,-0.001464558532461524,-0.0008174006943590939,-0.00036940001882612705,1.1419410705566406,0.011526226997375488,-9.73526668548584
41301309000,-0.0013717941474169493,-0.0007568717701360583,-0.00041707075433805585,1.1456210613250732,-0.0007128715515136719,-9.74343490600586
41308213000,-0.0013392941327765584,-0.0007379682501778007,-0.00040998257463797927,1.145479679107666,-0.0003966093063354492,-9.743083953857422
41315157000,-0.001309274579398334,-0.0007155070197768509,-0.0004046609392389655,1.1455117464065552,-0.0003514289855957031,-9.743069648742676
41322067000,-0.000666020205244422,7.143110269680619e-05,0.002602155087515712,1.173185110092163,-0.05007582902908325,-9.761327743530273
41335946000,-0.0012884229654446244,-0.0006569679826498032,-0.0003422394802328199,1.142826795578003,0.013723909854888916,-9.735929489135742
41342875000,-0.001451300922781229,-0.0007367892540059984,-0.00041917015914805233,1.1445972919464111,0.002009153366088867,-9.74244499206543
41349917000,-0.0013868606183677912,-0.0007242820574901998,-0.0004166233993601054,1.145402193069458,-0.0005131363868713379,-9.743379592895508
41356775000,-0.0013355077244341373,-0.0007094867178238928,-0.0004097763739991933,1.1454994678497314,-0.0004947781562805176,-9.743365287780762
41363751000,-0.0015194097068160772,-0.0006271490128710866,-0.0005973705556243658,1.1445670127868652,0.004113435745239258,-9.743545532226562
41377615000,-0.00017851329175755382,-0.0004454918089322746,-2.6021174562629312e-05,1.1201434135437012,0.04302501678466797,-9.732346534729004
41384617000,-0.0014508201275020838,-0.000793978339061141,-0.0003603619697969407,1.141803503036499,0.01252293586730957,-9.734443664550781
41391491000,-0.001468996750190854,-0.0007936745532788336,-0.00041568823507986963,1.1452107429504395,0.0009011626243591309,-9.743097305297852
41398554000,-0.0013805471826344728,-0.0007546612760052085,-0.000415732734836638,1.145660161972046,-0.0005917549133300781,-9.743468284606934
41405393000,-0.0015352624468505383,-0.0006451527588069439,-0.0006055841222405434,1.1448450088500977,0.003995537757873535,-9.743708610534668
41419300000,-0.0004634538490790874,1.2304168194532394e-05,0.0027193452697247267,1.1748981475830078,-0.05293262004852295,-9.762480735778809
41426216000,-8.346984395757318e-05,-0.0005962331197224557,0.0001363551855320111,1.1205260753631592,0.03701812028884888,-9.730496406555176
41433260000,-0.0013499483466148376,-0.0006630869465880096,-0.0003388498444110155,1.1424071788787842,0.014913737773895264,-9.73426342010498
41440120000,-0.0014926232397556305,-0.0007307245978154242,-0.00041491840966045856,1.1447679996490479,0.0018734931945800781,-9.742541313171387
41447126000,-0.0015537256840616465,-0.0005820950027555227,-0.000614986929576844,1.1451231241226196,0.003633260726928711,-9.744516372680664
41460987000,-0.0012956871651113033,-0.0007177958032116294,-0.000392010435461998,1.146097183227539,-0.00035071372985839844,-9.744240760803223
41467931000,-0.0016323195304721594,-0.0031750225462019444,0.0031257520895451307,1.1261827945709229,-0.056601762771606445,-9.712985038757324
41474851000,0.0016896906308829784,0.004074190277606249,1.9558676285669208e-05,1.2256121635437012,0.03745025396347046,-9.814931869506836
41481815000,-0.0020279805175960064,-0.0007932716980576515,-0.00048327125841751695,1.0835082530975342,0.024557650089263916,-9.693883895874023
41488727000,-0.0015283855609595776,-0.0007835034048184752,-0.00036084646126255393,1.1456851959228516,-0.005003988742828369,-9.746439933776855
41502675000,-0.001310715451836586,-0.0008540634880773723,-0.0004071634612046182,1.1447792053222656,-2.2530555725097656e-05,-9.744356155395508
41509577000,-0.0013232552446424961,-0.0009268487337976694,-0.0003985677903983742,1.1449410915374756,-0.0001811385154724121,-9.743581771850586
41516561000,-0.0008498441893607378,-0.0026512285694479942,0.006241223309189081,1.154865026473999,-0.10947221517562866,-9.731544494628906
41523455000,0.0017642213497310877,0.0012671143049374223,0.0006286829593591392,1.1549524068832397,0.07482850551605225,-9.752760887145996
41537351000,-0.001636929577216506,-1.7088837921619415e-05,-0.00028859887970611453,1.1431961059570312,-0.003750622272491455,-9.744818687438965
41544337000,-0.0013389057712629437,1.9513885490596294e-05,-0.00042861513793468475,1.1443243026733398,0.0006324648857116699,-9.750021934509277
41551259000,-0.0013618521625176072,-0.00030964636243879795,-0.0004335603443905711,1.1431382894515991,0.00014853477478027344,-9.747368812561035
41558194000,-0.001320310402661562,-0.000566088012419641,-0.00042937230318784714,1.1435725688934326,-0.00037235021591186523,-9.747198104858398
41572067000,-0.0013047500979155302,-0.0009338937816210091,-0.0004262040019966662,1.1443605422973633,-0.0003674626350402832,-9.745530128479004
41579003000,-0.0015037551056593657,-0.0009401965071447194,-0.0006137250456959009,1.1437458992004395,0.004217267036437988,-9.744719505310059
41586012000,-0.000460928218672052,-0.0005155018297955394,0.0028682975098490715,1.174096703529358,-0.060377538204193115,-9.76063060760498
41592915000,-0.0003220532671548426,-0.000637678662315011,-0.00014640585868619382,1.1197960376739502,0.04572111368179321,-9.731101989746094
41599883000,-0.001526165404357016,-0.0010175911011174321,-0.0003925047640223056,1.142287015914917,0.01063007116317749,-9.733247756958008
41613764000,-0.0013977361377328634,-0.0008994031231850386,-0.0004215676453895867,1.145457148551941,-0.0006342530250549316,-9.742996215820312
41620708000,-0.0015083886682987213,-0.0007290245266631246,-0.0006180680938996375,1.1449671983718872,0.003873467445373535,-9.743646621704102
41627636000,-0.0012586712837219238,-0.0009834141237661242,-0.0002501566777937114,1.1459898948669434,-0.007710397243499756,-9.741337776184082
41634633000,-0.0011787617113441229,-0.0007012190180830657,-0.0003852042427752167,1.1458346843719482,0.0017748475074768066,-9.74393081665039
41648552000,-0.00029124965658411384,-0.0005537644610740244,2.4670605853316374e-05,1.119469165802002,0.03977018594741821,-9.730252265930176
41655420000,-0.0013558834325522184,-0.0007437458843924105,-0.0002797260240186006,1.142698049545288,0.010895013809204102,-9.734889030456543
41662439000,-0.0012426400789991021,-0.0008011486497707665,-0.00021434346854221076,1.1457459926605225,-0.0019497275352478027,-9.742674827575684
41669312000,-0.0014222889440134168,-0.0004909003619104624,-0.0005838068318553269,1.144640326499939,0.007194221019744873,-9.744797706604004
41683249000,-0.0013441239716485143,-0.0007153514306992292,-0.0004140347009524703,1.1453561782836914,-0.0012369155883789062,-9.743730545043945
41690120000,-0.0005115155363455415,2.2089428966864944e-05,0.002711336128413677,1.1739006042480469,-0.053151726722717285,-9.761877059936523
41697144000,-0.0002945575397461653,-0.0005092670908197761,-6.119200406828895e-05,1.1194145679473877,0.04115653038024902,-9.73139476776123
41704022000,-0.0014631298836320639,-0.0008606582996435463,-0.0003724232956301421,1.1417127847671509,0.011570096015930176,-9.735642433166504
41710963000,-0.0014615983236581087,-0.0008491239859722555,-0.00042896746890619397,1.1451234817504883,0.0008202791213989258,-9.743314743041992
41724849000,-0.0013430023100227118,-0.0008018158841878176,-0.0004086997942067683,1.1451735496520996,-0.0004546642303466797,-9.742818832397461
41731854000,-0.0013158428482711315,-0.0007667767349630594,-0.00040888358489610255,1.1454980373382568,-0.00023257732391357422,-9.743030548095703
41738744000,-0.0005060204421170056,-4.22715675085783e-06,0.0027054620441049337,1.1740728616714478,-0.05284571647644043,-9.761310577392578
41745743000,-0.00029558385722339153,-0.000510487996507436,-6.497940921690315e-05,1.119615077972412,0.0411648154258728,-9.73095989227295
41752653000,-0.0014577724505215883,-0.0008231950341723859,-0.00037361998693086207,1.1419799327850342,0.011483907699584961,-9.735021591186523
41766603000,-0.001373741077259183,-0.0007625736761838198,-0.000424740748712793,1.14554762840271,-0.0005423426628112793,-9.743372917175293
41773473000,-0.0013173774350434542,-0.000732918328139931,-0.00041769089875742793,1.145481824874878,-0.0005262494087219238,-9.743213653564453
41780471000,-0.0013204124988988042,-0.0007320832810364664,-0.0004061647050548345,1.145309329032898,-0.00025910139083862305,-9.742842674255371
41787356000,-0.0005115577951073647,1.741142477840185e-05,0.002711666515097022,1.1740314960479736,-0.052903175354003906,-9.761346817016602
41801269000,-0.0014606623444706202,-0.0008250107639469206,-0.0003732913173735142,1.141898512840271,0.011521697044372559,-9.73532772064209
41808183000,-0.0014668230433017015,-0.0008137722034007311,-0.0004246312892064452,1.145214319229126,0.0007745027542114258,-9.74311637878418
41815157000,-0.0013666287995874882,-0.0007648968603461981,-0.0004242412105668336,1.1456319093704224,-0.000661313533782959,-9.743486404418945
41822091000,-0.0013250347692519426,-0.000743434124160558,-0.00041294837137684226,1.145485520362854,-0.0005115866661071777,-9.743118286132812
41829067000,-0.0015067050699144602,-0.0006429576897062361,-0.000600807077717036,1.1446738243103027,0.004114508628845215,-9.74343204498291
41842904000,-0.0005990834906697273,0.00014365333481691778,0.0025543447118252516,1.1738393306732178,-0.04663294553756714,-9.762969017028809
41849878000,-0.0002171204541809857,-0.0006618482293561101,0.00011014121992047876,1.120163917541504,0.0346522331237793,-9.729559898376465
41856796000,-0.001295464113354683,-0.0006673941970802844,-0.0003446667979005724,1.1429299116134644,0.013536214828491211,-9.736006736755371
41863833000,-0.0014549762709066272,-0.000745398283470422,-0.00041946498095057905,1.1445870399475098,0.0019506216049194336,-9.742387771606445
41877680000,-0.0014416053891181946,-0.000856766477227211,-0.00035920768277719617,1.1453527212142944,-0.0051146745681762695,-9.742238998413086
41884643000,-0.0012831263011321425,-0.0007304660975933075,-0.000392089132219553,1.1461093425750732,-0.000438690185546875,-9.74421501159668
41891648000,-0.0004964725812897086,9.3039998319e-06,0.0027144739869982004,1.1740846633911133,-0.05259066820144653,-9.761475563049316
41898571000,-0.0001072584418579936,-0.0006064481567591429,0.00013460929039865732,1.120365023612976,0.0369071364402771,-9.730511665344238
41905427000,-0.0015216325409710407,-0.000565220252610743,-0.0005295747541822493,1.1417580842971802,0.018948256969451904,-9.735097885131836
41919367000,-0.0012268365826457739,-0.0006237271591089666,-0.00039035308873280883,1.146237850189209,0.001180112361907959,-9.745362281799316
41926250000,-0.0013349712826311588,-0.0006935902056284249,-0.00040732818888500333,1.1448583602905273,0.0007850527763366699,-9.742605209350586
41933236000,-0.0013155285269021988,-0.0006997062591835856,-0.00039967105840332806,1.145348072052002,-0.0003383159637451172,-9.743165016174316
41940155000,-0.0008645495399832726,-0.002425203565508127,0.0062393019907176495,1.154807448387146,-0.10932755470275879,-9.731310844421387
41947183000,0.0017572750803083181,0.0013983349781483412,0.0006252938183024526,1.15431547164917,0.0748024582862854,-9.754132270812988
41961016000,-0.0016351270023733377,2.0193983800709248e-05,-0.0002853459445759654,1.1429429054260254,-0.003668546676635742,-9.744672775268555
41967955000,-0.0013344335602596402,4.618579987436533e-05,-0.0004280658031348139,1.1441547870635986,0.000654757022857666,-9.750105857849121
41974880000,-0.0013810801319777966,-0.00030087900813668966,-0.0004337404388934374,1.1429736614227295,0.00029844045639038086,-9.747367858886719
41981871000,-0.001328750280663371,-0.0005596480332314968,-0.00042943237349390984,1.1434905529022217,-0.00043833255767822266,-9.747343063354492
41988772000,-0.0013063244987279177,-0.0007696119719184935,-0.0004290234937798232,1.1437956094741821,-0.0001977086067199707,-9.746439933776855
42002678000,-0.0007159596425481141,-0.00021136258146725595,0.0025033398997038603,1.1724982261657715,-0.048610806465148926,-9.763349533081055
42009643000,-0.00023121631238609552,-0.0010190895991399884,8.748609980102628e-05,1.1200568675994873,0.03363823890686035,-9.73081111907959
42016598000,-0.001287660445086658,-0.0009380046976730227,-0.0003624468808993697,1.1430222988128662,0.013331592082977295,-9.734756469726562
42023478000,-0.0014498301316052675,-0.0009396587847732008,-0.00043475424172356725,1.1447417736053467,0.0019596219062805176,-9.741507530212402
42037404000,-0.0014423186657950282,-0.0010014334693551064,-0.00036945153260603547,1.145219087600708,-0.005104482173919678,-9.741665840148926
42044342000,-0.001261912053450942,-0.0008102855063043535,-0.0004118484503123909,1.1462743282318115,-0.00037598609924316406,-9.743962287902832
42051279000,-0.0013302430743351579,-0.0008165528997778893,-0.00041144699207507074,1.144944429397583,0.00029021501541137695,-9.742009162902832
42058239000,-0.0005484080757014453,-5.634315311908722e-05,0.002711833920329809,1.1738545894622803,-0.05283713340759277,-9.760675430297852
42072089000,-0.0014296660665422678,-0.0008385948021896183,-0.0002926049055531621,1.1419512033462524,0.009937524795532227,-9.73422908782959
42079056000,-0.0014314670115709305,-0.0007503492524847388,-0.0004114824114367366,1.1453545093536377,0.0018947124481201172,-9.743474006652832
42085996000,-0.0013914736919105053,-0.0007281285943463445,-0.00041992522892542183,1.1452465057373047,-0.0001652240753173828,-9.743210792541504
42092921000,-0.0013424940407276154,-0.0007054143934510648,-0.00041593448258936405,1.145294427871704,-0.00042569637298583984,-9.743304252624512
42106828000,-0.000529913289938122,2.8410082450136542e-05,0.002707501407712698,1.1737927198410034,-0.052926063537597656,-9.76148509979248
42113950000,-0.00032590003684163094,-0.0004993954207748175,-6.319131352938712e-05,1.1194992065429688,0.04104894399642944,-9.731266975402832
42120740000,-0.001449136296287179,-0.0008348312694579363,-0.00037369230994954705,1.1417421102523804,0.011295795440673828,-9.735817909240723
42127679000,-0.001474961289204657,-0.0008314253063872457,-0.0004288076888769865,1.1450668573379517,0.0009638071060180664,-9.74318790435791
42134746000,-0.0013816608116030693,-0.0007909517153166234,-0.0004251931968610734,1.1454415321350098,-0.000666499137878418,-9.743498802185059
42148537000,-0.0013095363974571228,-0.0007427349337376654,-0.0004140712844673544,1.1453359127044678,-0.00025194883346557617,-9.743023872375488
42155456000,-0.0005389765719883144,-2.3561558919027448e-05,0.002709023654460907,1.1736774444580078,-0.052779555320739746,-9.760932922363281
42162444000,-0.00031270511681213975,-0.0005166242481209338,-6.278603541431949e-05,1.1197140216827393,0.04110532999038696,-9.731160163879395
42169386000,-0.001461579347960651,-0.0008302950882352889,-0.00037147337570786476,1.1419398784637451,0.011412620544433594,-9.735213279724121
42176302000,-0.0014623242896050215,-0.0008105654269456863,-0.00042406091233715415,1.1451988220214844,0.0007738471031188965,-9.743152618408203
42183339000,-0.0013678169343620539,-0.0007614494534209371,-0.0004245651070959866,1.1455609798431396,-0.0006063580513000488,-9.743462562561035
42197248000,-0.0014843599637970328,-0.0006878598360344768,-0.0005234790733084083,1.1444966793060303,0.0025046467781066895,-9.743043899536133
42204098000,-0.0011860409285873175,-0.0008600111468695104,-0.0002359742356929928,1.1465001106262207,-0.00665283203125,-9.742460250854492
42211003000,-0.0005737694445997477,0.00017654409748502076,0.0025470752734690905,1.1734728813171387,-0.046107590198516846,-9.762683868408203
42218090000,-0.00023269071243703365,-0.0006544241332449019,0.00010252078936900944,1.1198774576187134,0.03489905595779419,-9.72935962677002
42231905000,-0.0014659981243312359,-0.000751097162719816,-0.00042128702625632286,1.1444146633148193,0.0019410252571105957,-9.74233341217041
42238796000,-0.0015401223208755255,-0.0006810566410422325,-0.000535209197551012,1.1445324420928955,0.002262294292449951,-9.743583679199219
42245746000,-0.0012418957194313407,-0.0008714749710634351,-0.00024198988103307784,1.1464638710021973,-0.006735622882843018,-9.74270248413086
42252718000,-0.0014076625229790807,-0.0005741457571275532,-0.0005759070045314729,1.1446653604507446,0.006510734558105469,-9.744532585144043
42259622000,-0.0006217961781658232,-4.022306529805064e-05,0.0026777933817356825,1.1737234592437744,-0.05508524179458618,-9.760613441467285
42266650000,-0.00012224743841215968,-0.0006208390113897622,0.00012441212311387062,1.1206953525543213,0.03584849834442139,-9.731130599975586
42280495000,-0.0014190466608852148,-0.000942295475397259,-0.00025438133161515,1.1453242301940918,-0.0054697394371032715,-9.74147891998291
42287425000,-0.0012145601212978363,-0.0006377447280101478,-0.0003993410791736096,1.1461799144744873,0.0012306571006774902,-9.745340347290039
42294397000,-0.0013191940961405635,-0.000703378755133599,-0.00041072748717851937,1.1448185443878174,0.0006806850433349609,-9.742566108703613
42301360000,-0.0013159278314560652,-0.0007104430114850402,-0.000407770334277302,1.1452316045761108,-0.00016433000564575195,-9.743019104003906
42315274000,-0.00030400167452171445,-0.0004983247490599751,-5.973293446004391e-05,1.119568109512329,0.04115408658981323,-9.73112964630127
42322131000,-0.0014691294636577368,-0.0008275053696706891,-0.00037277303636074066,1.1419486999511719,0.011570870876312256,-9.735289573669434
42329084000,-0.0014635338447988033,-0.0008139476994983852,-0.0004246816679369658,1.14524245262146,0.0007145404815673828,-9.74323844909668
42336037000,-0.001379305962473154,-0.0007752901292406023,-0.00042072200449183583,1.1455883979797363,-0.0006288886070251465,-9.743419647216797
42342970000,-0.0013338022399693727,-0.000751919811591506,-0.000412563094869256,1.1455106735229492,-0.0004881620407104492,-9.743144989013672
42356862000,-0.0004946214030496776,2.4859211407601833e-05,0.002709650434553623,1.1741206645965576,-0.052895426750183105,-9.761341094970703
42363894000,-0.0002971902722492814,-0.0004946906119585037,-5.985266761854291e-05,1.1196367740631104,0.0412137508392334,-9.730926513671875
42370737000,-0.001453844248317182,-0.0008139780256897211,-0.0003723264089785516,1.1420495510101318,0.011510908603668213,-9.735215187072754
42377675000,-0.0014673754340037704,-0.0008020822424441576,-0.0004252831276971847,1.145287036895752,0.0008435845375061035,-9.743084907531738
42384679000,-0.0013796109706163406,-0.0007618169183842838,-0.000420262134866789,1.1456327438354492,-0.0006694793701171875,-9.743367195129395
42398552000,-0.0013111070729792118,-0.0007188150193542242,-0.0004063007072545588,1.145571231842041,-0.00040030479431152344,-9.743080139160156
42405485000,-0.0005089723272249103,3.0258321203291416e-05,0.0027101305313408375,1.1741442680358887,-0.05284392833709717,-9.761329650878906
42412468000,-0.0003043052856810391,-0.0004893236327916384,-5.905138823436573e-05,1.1196749210357666,0.04116392135620117,-9.730979919433594
42419379000,-0.0014667519135400653,-0.0008239558665081859,-0.00036708370316773653,1.1420046091079712,0.011470615863800049,-9.735302925109863
42433346000,-0.0013753660023212433,-0.0007592228357680142,-0.0004190945765003562,1.14574134349823,-0.0006170868873596191,-9.743440628051758
42440201000,-0.001503555802628398,-0.0006996766896918416,-0.0005239435704424977,1.1446759700775146,0.002420961856842041,-9.743061065673828
42447209000,-0.0012141801416873932,-0.0008737045573070645,-0.00023138428514357656,1.1467342376708984,-0.006681621074676514,-9.742427825927734
42454128000,-0.0017122593708336353,-0.0030143987387418747,0.002949740970507264,1.1257972717285156,-0.050053954124450684,-9.714181900024414
42468014000,-0.00205687596462667,-0.0008400550577789545,-0.00048199400771409273,1.0841763019561768,0.023279637098312378,-9.694311141967773
42474917000,-0.0013577314093708992,-0.0008303201757371426,-0.0002499354595784098,1.1468569040298462,-0.007990062236785889,-9.7465238571167
42481942000,-0.0012226300314068794,-0.000685053295455873,-0.0003903507022187114,1.1453273296356201,0.0015488266944885254,-9.74662971496582
42488811000,-0.001308205770328641,-0.0008147252374328673,-0.00040989957051351666,1.144554853439331,0.0007072091102600098,-9.743851661682129
42495798000,-0.0013418339658528566,-0.0008930464391596615,-0.0004035423626191914,1.144883632659912,-2.676248550415039e-05,-9.743370056152344
42509645000,0.0017426233971491456,0.0012807982275262475,0.0006267459248192608,1.1549553871154785,0.07477152347564697,-9.753251075744629
42516625000,-0.0016474195290356874,0.0006179477786645293,-0.0004929282004013658,1.1339986324310303,0.037745535373687744,-9.722624778747559
42523540000,-0.0016276695532724261,-1.330627128481865e-05,-0.00028695317450910807,1.1431812047958374,-0.0037581920623779297,-9.744763374328613
42530572000,-0.0013416463043540716,1.4567747712135315e-05,-0.0004298205894883722,1.144212245941162,0.0007416009902954102,-9.749895095825195
42537462000,-0.0013620681129395962,-0.000310003524646163,-0.00043619450298137963,1.1431550979614258,0.0001595616340637207,-9.747385025024414
42551425000,-0.00134595378767699,-0.0008051848271861672,-0.000426380691351369,1.1436140537261963,-8.785724639892578e-05,-9.74594497680664
42558252000,-0.0013088989071547985,-0.0009355317451991141,-0.00042231602128595114,1.1442919969558716,-0.000353395938873291,-9.745423316955566
